wavelength,amplitude
828.75,0.081
827.9,0.064
827.05,0.057
826.1999999999999,0.061
825.35,0.059
824.5,0.059
823.65,0.058
822.8,0.055
821.9499999999999,0.058
821.1,0.060
820.25,0.056
819.4,0.058
818.55,0.055
817.6999999999999,0.053
816.85,0.055
816.0,0.055
815.15,0.054
814.3,0.055
813.4499999999999,0.057
812.6,0.054
811.75,0.054
810.9,0.054
810.05,0.059
809.1999999999999,0.052
808.35,0.055
807.5,0.056
806.65,0.055
805.8,0.052
804.9499999999999,0.050
804.1,0.050
803.25,0.048
802.4,0.049
801.55,0.053
800.6999999999999,0.054
799.85,0.052
799.0,0.053
798.15,0.051
797.3,0.050
796.4499999999999,0.048
795.6,0.050
794.75,0.052
793.9,0.050
793.05,0.050
792.1999999999999,0.048
791.35,0.052
790.5,0.053
789.65,0.052
788.8,0.052
787.9499999999999,0.050
787.1,0.051
786.25,0.055
785.4,0.055
784.55,0.057
783.6999999999999,0.054
782.85,0.058
782.0,0.059
781.15,0.056
780.3,0.058
779.4499999999999,0.060
778.6,0.058
777.75,0.061
776.9,0.064
776.05,0.068
775.1999999999999,0.075
774.35,0.079
773.5,0.083
772.65,0.095
771.8,0.119
770.9499999999999,0.178
770.1,0.253
769.25,0.350
768.4,0.457
767.55,0.561
766.6999999999999,0.650
765.85,0.729
765.0,0.796
764.15,0.834
763.3,0.852
762.4499999999999,0.835
761.6,0.780
760.75,0.686
759.9,0.539
759.05,0.386
758.1999999999999,0.268
757.35,0.180
756.5,0.134
755.65,0.097
754.8,0.084
753.9499999999999,0.075
753.1,0.067
752.25,0.061
751.4,0.054
750.55,0.059
749.6999999999999,0.057
748.85,0.053
748.0,0.056
747.15,0.053
746.3,0.052
745.4499999999999,0.052
744.6,0.050
743.75,0.047
742.9,0.043
742.05,0.044
741.1999999999999,0.049
740.35,0.051
739.5,0.047
738.65,0.043
737.8,0.043
736.9499999999999,0.043
736.1,0.039
735.25,0.043
734.4,0.044
733.55,0.044
732.6999999999999,0.042
731.85,0.035
731.0,0.037
730.15,0.034
729.3,0.035
728.4499999999999,0.037
727.6,0.040
726.75,0.037
725.9,0.036
725.05,0.036
724.1999999999999,0.036
723.35,0.034
722.5,0.034
721.65,0.033
720.8,0.033
719.9499999999999,0.031
719.1,0.034
718.25,0.035
717.4,0.034
716.55,0.035
715.6999999999999,0.038
714.85,0.039
714.0,0.041
713.15,0.040
712.3,0.041
711.4499999999999,0.044
710.6,0.048
709.75,0.059
708.9,0.078
708.05,0.115
707.1999999999999,0.164
706.35,0.218
705.5,0.267
704.65,0.310
703.8,0.338
702.9499999999999,0.365
702.1,0.372
701.25,0.369
700.4,0.352
699.55,0.309
698.6999999999999,0.249
697.85,0.187
697.0,0.137
696.15,0.101
695.3,0.077
694.4499999999999,0.064
693.6,0.057
692.75,0.054
691.9,0.052
691.05,0.054
690.1999999999999,0.053
689.35,0.051
688.5,0.050
687.65,0.053
686.8,0.057
685.9499999999999,0.060
685.1,0.065
684.25,0.077
683.4,0.096
682.55,0.170
681.6999999999999,0.273
680.85,0.394
680.0,0.513
679.15,0.618
678.3,0.699
677.4499999999999,0.757
676.6,0.796
675.75,0.818
674.9,0.818
674.05,0.739
673.1999999999999,0.600
672.35,0.444
671.5,0.305
670.65,0.206
669.8,0.156
668.9499999999999,0.122
668.1,0.103
667.25,0.095
666.4,0.084
665.55,0.078
664.6999999999999,0.072
663.85,0.066
663.0,0.066
662.15,0.061
661.3,0.058
660.4499999999999,0.055
659.6,0.050
658.75,0.049
657.9,0.047
657.05,0.046
656.1999999999999,0.046
655.35,0.047
654.5,0.045
653.65,0.041
652.8,0.040
651.9499999999999,0.039
651.1,0.039
650.25,0.038
649.4,0.037
648.55,0.036
647.6999999999999,0.037
646.85,0.038
646.0,0.038
645.15,0.038
644.3,0.037
643.4499999999999,0.037
642.6,0.041
641.75,0.042
640.9,0.046
640.05,0.052
639.1999999999999,0.063
638.35,0.092
637.5,0.144
636.65,0.212
635.8,0.283
634.9499999999999,0.355
634.1,0.422
633.25,0.477
632.4,0.514
631.55,0.537
630.6999999999999,0.548
629.85,0.511
629.0,0.442
628.15,0.351
627.3,0.263
626.4499999999999,0.179
625.6,0.127
624.75,0.097
623.9,0.080
623.05,0.072
622.1999999999999,0.064
621.35,0.061
620.5,0.057
619.65,0.054
618.8,0.052
617.9499999999999,0.048
617.1,0.046
616.25,0.046
615.4,0.046
614.55,0.042
613.6999999999999,0.041
612.85,0.041
612.0,0.041
611.15,0.042
610.3,0.044
609.4499999999999,0.041
608.6,0.042
607.75,0.044
606.9,0.045
606.05,0.047
605.1999999999999,0.048
604.35,0.049
603.5,0.051
602.65,0.054
601.8,0.057
600.9499999999999,0.058
600.1,0.060
599.25,0.063
598.4,0.067
597.55,0.065
596.6999999999999,0.061
595.85,0.059
595.0,0.058
594.15,0.054
593.3,0.048
592.4499999999999,0.045
591.6,0.041
590.75,0.039
589.9,0.039
589.05,0.036
588.1999999999999,0.035
587.35,0.034
586.5,0.032
585.65,0.031
584.8,0.030
583.9499999999999,0.032
583.1,0.032
582.25,0.033
581.4,0.034
580.55,0.040
579.6999999999999,0.049
578.85,0.060
578.0,0.073
577.15,0.081
576.3,0.089
575.4499999999999,0.095
574.6,0.095
573.75,0.092
572.9,0.086
572.05,0.074
571.1999999999999,0.061
570.35,0.049
569.5,0.037
568.65,0.035
567.8,0.035
566.9499999999999,0.037
566.1,0.039
565.25,0.045
564.4,0.050
563.55,0.055
562.6999999999999,0.061
561.85,0.068
561.0,0.077
560.15,0.084
559.3,0.092
558.4499999999999,0.098
557.6,0.104
556.75,0.106
555.9,0.109
555.05,0.111
554.1999999999999,0.113
553.35,0.113
552.5,0.121
551.65,0.166
550.8,0.257
549.9499999999999,0.389
549.1,0.532
548.25,0.674
547.4,0.792
546.55,0.899
545.6999999999999,0.962
544.85,1.000
544.0,0.954
543.15,0.825
542.3,0.639
541.4499999999999,0.431
540.6,0.290
539.75,0.214
538.9,0.182
538.05,0.157
537.1999999999999,0.135
536.35,0.122
535.5,0.110
534.65,0.098
533.8,0.096
532.9499999999999,0.091
532.1,0.086
531.25,0.082
530.4,0.076
529.55,0.068
528.6999999999999,0.065
527.85,0.062
527.0,0.059
526.15,0.059
525.3,0.056
524.4499999999999,0.057
523.6,0.063
522.75,0.073
521.9,0.082
521.05,0.095
520.1999999999999,0.110
519.35,0.126
518.5,0.135
517.65,0.147
516.8,0.152
515.9499999999999,0.150
515.1,0.141
514.25,0.128
513.4,0.116
512.55,0.101
511.7,0.087
510.84999999999997,0.074
510.0,0.063
509.15,0.053
508.3,0.047
507.45,0.040
506.59999999999997,0.037
505.75,0.034
504.9,0.032
504.05,0.034
503.2,0.035
502.34999999999997,0.036
501.5,0.036
500.65,0.036
499.8,0.036
498.95,0.034
498.09999999999997,0.032
497.25,0.031
496.4,0.032
495.55,0.036
494.7,0.040
493.84999999999997,0.047
493.0,0.053
492.15,0.057
491.3,0.060
490.45,0.065
489.59999999999997,0.075
488.75,0.082
487.9,0.089
487.05,0.099
486.2,0.111
485.34999999999997,0.126
484.5,0.135
483.65,0.142
482.8,0.140
481.95,0.132
481.09999999999997,0.122
480.25,0.106
479.4,0.091
478.55,0.076
477.7,0.063
476.84999999999997,0.055
476.0,0.049
475.15,0.046
474.3,0.045
473.45,0.047
472.59999999999997,0.045
471.75,0.047
470.9,0.050
470.05,0.052
469.2,0.054
468.34999999999997,0.061
467.5,0.080
466.65,0.106
465.8,0.143
464.95,0.206
464.09999999999997,0.312
463.25,0.432
462.4,0.541
461.55,0.629
460.7,0.683
459.84999999999997,0.697
459.0,0.656
458.15,0.548
457.3,0.404
456.45,0.255
455.59999999999997,0.217
454.75,0.231
453.9,0.268
453.05,0.308
452.2,0.336
451.34999999999997,0.351
450.5,0.347
449.65,0.311
448.8,0.242
447.95,0.167
447.09999999999997,0.126
446.25,0.106
445.4,0.098
444.55,0.093
443.7,0.088
442.84999999999997,0.084
442.0,0.081
441.15,0.077
440.3,0.075
439.45,0.071
438.59999999999997,0.071
437.75,0.073
436.9,0.080
436.05,0.093
435.2,0.118
434.34999999999997,0.146
433.5,0.174
432.65,0.199
431.8,0.215
430.95,0.214
430.09999999999997,0.195
429.25,0.159
428.4,0.123
427.55,0.094
426.7,0.077
425.84999999999997,0.064
425.0,0.057
424.15,0.056
423.3,0.056
422.45,0.056
421.59999999999997,0.056
420.75,0.058
419.9,0.057
419.05,0.058
418.2,0.060
417.34999999999997,0.061
416.5,0.066
415.65,0.075
414.8,0.088
413.95,0.111
413.09999999999997,0.143
412.25,0.181
411.4,0.220
410.55,0.260
409.7,0.290
408.84999999999997,0.310
408.0,0.304
407.15,0.267
406.3,0.230
405.45,0.194
404.59999999999997,0.169
403.75,0.155
402.9,0.149
402.05,0.150
401.2,0.152
400.34999999999997,0.153
399.5,0.148
398.65,0.137
397.8,0.125
396.95,0.110
396.09999999999997,0.099
395.25,0.089
394.4,0.081
393.55,0.076
392.7,0.073
391.84999999999997,0.073
391.0,0.072
390.15,0.071
389.3,0.070
388.45,0.067
387.59999999999997,0.066
386.75,0.066
385.9,0.067
385.05,0.069
384.2,0.072
383.34999999999997,0.079
382.5,0.085
381.65,0.095
380.8,0.102
