wavelength,amplitude
952.56,0.406
951.5799999999999,0.384
950.6,0.351
949.62,0.318
948.64,0.286
947.66,0.255
946.68,0.234
945.6999999999999,0.221
944.72,0.214
943.74,0.210
942.76,0.214
941.78,0.222
940.8,0.236
939.8199999999999,0.254
938.84,0.284
937.86,0.332
936.88,0.403
935.9,0.497
934.92,0.619
933.9399999999999,0.740
932.96,0.861
931.98,0.941
931.0,0.985
930.02,1.000
929.04,0.988
928.06,0.938
927.0799999999999,0.868
926.1,0.792
925.12,0.704
924.14,0.596
923.16,0.519
922.18,0.468
921.1999999999999,0.437
920.22,0.439
919.24,0.467
918.26,0.512
917.28,0.562
916.3,0.603
915.3199999999999,0.634
914.34,0.636
913.36,0.628
912.38,0.610
911.4,0.581
910.42,0.551
909.4399999999999,0.534
908.46,0.528
907.48,0.527
906.5,0.530
905.52,0.524
904.54,0.512
903.56,0.490
902.5799999999999,0.460
901.6,0.422
900.62,0.374
899.64,0.325
898.66,0.280
897.68,0.238
896.6999999999999,0.195
895.72,0.165
894.74,0.141
893.76,0.125
892.78,0.115
891.8,0.108
890.8199999999999,0.104
889.84,0.105
888.86,0.107
887.88,0.109
886.9,0.109
885.92,0.108
884.9399999999999,0.107
883.96,0.105
882.98,0.107
882.0,0.111
881.02,0.116
880.04,0.124
879.06,0.131
878.0799999999999,0.146
877.1,0.177
876.12,0.237
875.14,0.315
874.16,0.400
873.18,0.485
872.1999999999999,0.530
871.22,0.548
870.24,0.543
869.26,0.517
868.28,0.481
867.3,0.440
866.3199999999999,0.400
865.34,0.367
864.36,0.351
863.38,0.409
862.4,0.512
861.42,0.635
860.4399999999999,0.766
859.46,0.849
858.48,0.876
857.5,0.868
856.52,0.829
855.54,0.764
854.56,0.679
853.58,0.583
852.6,0.484
851.62,0.396
850.64,0.317
849.66,0.251
848.68,0.210
847.6999999999999,0.190
846.72,0.195
845.74,0.231
844.76,0.299
843.78,0.383
842.8,0.476
841.8199999999999,0.562
840.84,0.613
839.86,0.625
838.88,0.611
837.9,0.575
836.92,0.521
835.9399999999999,0.456
834.96,0.384
833.98,0.311
833.0,0.240
832.02,0.181
831.04,0.152
830.06,0.138
829.08,0.132
828.1,0.138
827.12,0.164
826.14,0.214
825.16,0.274
824.18,0.330
823.1999999999999,0.373
822.22,0.395
821.24,0.385
820.26,0.360
819.28,0.327
818.3,0.286
817.3199999999999,0.235
816.34,0.188
815.36,0.144
814.38,0.112
813.4,0.093
812.42,0.085
811.4399999999999,0.090
810.46,0.105
809.48,0.125
808.5,0.145
807.52,0.161
806.54,0.168
805.56,0.163
804.58,0.148
803.6,0.130
802.62,0.106
801.64,0.088
800.66,0.072
799.68,0.059
798.6999999999999,0.049
797.72,0.045
796.74,0.041
795.76,0.041
794.78,0.042
793.8,0.047
792.8199999999999,0.056
791.84,0.067
790.86,0.078
789.88,0.087
788.9,0.089
787.92,0.086
786.9399999999999,0.079
785.96,0.070
784.98,0.064
784.0,0.065
783.02,0.083
782.04,0.118
781.06,0.167
780.08,0.221
779.1,0.249
778.12,0.255
777.14,0.247
776.16,0.228
775.18,0.195
774.1999999999999,0.158
773.22,0.125
772.24,0.097
771.26,0.077
770.28,0.074
769.3,0.095
768.3199999999999,0.138
767.34,0.190
766.36,0.250
765.38,0.289
764.4,0.303
763.42,0.296
762.4399999999999,0.273
761.46,0.241
760.48,0.198
759.5,0.157
758.52,0.114
757.54,0.080
756.56,0.056
755.58,0.045
754.6,0.040
753.62,0.039
752.64,0.038
751.66,0.040
750.68,0.040
749.6999999999999,0.040
748.72,0.038
747.74,0.034
746.76,0.030
745.78,0.028
744.8,0.026
743.8199999999999,0.024
742.84,0.022
741.86,0.023
740.88,0.023
739.9,0.024
738.92,0.025
737.9399999999999,0.027
736.96,0.028
735.98,0.029
735.0,0.028
734.02,0.026
733.04,0.026
732.06,0.025
731.08,0.024
730.1,0.024
729.12,0.025
728.14,0.027
727.16,0.028
726.18,0.028
725.1999999999999,0.028
724.22,0.027
723.24,0.026
722.26,0.025
721.28,0.025
720.3,0.023
719.3199999999999,0.024
718.34,0.024
717.36,0.025
716.38,0.025
715.4,0.026
714.42,0.027
713.4399999999999,0.028
712.46,0.030
711.48,0.031
710.5,0.031
709.52,0.031
708.54,0.030
707.56,0.029
706.58,0.029
705.6,0.027
704.62,0.026
703.64,0.027
702.66,0.027
701.68,0.028
700.6999999999999,0.027
699.72,0.028
698.74,0.028
697.76,0.029
696.78,0.030
695.8,0.032
694.8199999999999,0.032
693.84,0.033
692.86,0.034
691.88,0.034
690.9,0.035
689.92,0.034
688.9399999999999,0.034
687.96,0.034
686.98,0.034
686.0,0.034
685.02,0.034
684.04,0.034
683.06,0.034
682.08,0.034
681.1,0.033
680.12,0.033
679.14,0.032
678.16,0.032
677.18,0.032
676.1999999999999,0.032
675.22,0.032
674.24,0.032
673.26,0.032
672.28,0.031
671.3,0.032
670.3199999999999,0.031
669.34,0.031
668.36,0.031
667.38,0.031
666.4,0.032
665.42,0.032
664.4399999999999,0.031
663.46,0.031
662.48,0.031
661.5,0.031
660.52,0.031
659.54,0.031
658.56,0.031
657.58,0.031
656.6,0.031
655.62,0.031
654.64,0.031
653.66,0.031
652.68,0.031
651.6999999999999,0.031
650.72,0.031
649.74,0.031
648.76,0.034
647.78,0.035
646.8,0.036
645.8199999999999,0.036
644.84,0.036
643.86,0.034
642.88,0.033
641.9,0.032
640.92,0.030
639.9399999999999,0.029
638.96,0.029
637.98,0.029
637.0,0.029
636.02,0.029
635.04,0.030
634.06,0.029
633.08,0.030
632.1,0.031
631.12,0.032
630.14,0.031
629.16,0.031
628.18,0.030
627.2,0.030
626.22,0.029
625.24,0.029
624.26,0.029
623.28,0.029
622.3,0.028
621.3199999999999,0.027
620.34,0.027
619.36,0.026
618.38,0.026
617.4,0.026
616.42,0.026
615.4399999999999,0.025
614.46,0.025
613.48,0.025
612.5,0.024
611.52,0.024
610.54,0.025
609.56,0.025
608.58,0.025
607.6,0.023
606.62,0.023
605.64,0.024
604.66,0.024
603.68,0.023
602.7,0.024
601.72,0.024
600.74,0.024
599.76,0.023
598.78,0.023
597.8,0.024
596.8199999999999,0.023
595.84,0.023
594.86,0.024
593.88,0.023
592.9,0.024
591.92,0.024
590.9399999999999,0.024
589.96,0.023
588.98,0.023
588.0,0.023
587.02,0.022
586.04,0.022
585.06,0.022
584.08,0.022
583.1,0.022
582.12,0.022
581.14,0.022
580.16,0.022
579.18,0.022
578.2,0.022
577.22,0.022
576.24,0.022
575.26,0.022
574.28,0.022
573.3,0.022
572.3199999999999,0.022
571.34,0.022
570.36,0.022
569.38,0.022
568.4,0.022
567.42,0.021
566.4399999999999,0.021
565.46,0.021
564.48,0.021
563.5,0.020
562.52,0.020
561.54,0.020
560.56,0.019
559.58,0.019
558.6,0.019
557.62,0.019
556.64,0.018
555.66,0.019
554.68,0.019
553.7,0.019
552.72,0.019
551.74,0.019
550.76,0.019
549.78,0.019
548.8,0.019
547.8199999999999,0.019
546.84,0.019
545.86,0.020
544.88,0.020
543.9,0.019
542.92,0.019
541.9399999999999,0.017
540.96,0.017
539.98,0.017
539.0,0.017
538.02,0.017
537.04,0.018
536.06,0.018
535.08,0.018
534.1,0.018
533.12,0.018
532.14,0.017
531.16,0.017
530.18,0.017
529.2,0.016
528.22,0.017
527.24,0.016
526.26,0.016
525.28,0.016
524.3,0.016
523.3199999999999,0.016
522.34,0.017
521.36,0.016
520.38,0.016
519.4,0.016
518.42,0.016
517.4399999999999,0.016
516.46,0.017
515.48,0.017
514.5,0.017
513.52,0.018
512.54,0.018
511.56,0.018
510.58,0.019
509.59999999999997,0.019
508.62,0.019
507.64,0.018
506.65999999999997,0.017
505.68,0.017
504.7,0.016
503.71999999999997,0.017
502.74,0.017
501.76,0.016
500.78,0.017
499.8,0.017
498.82,0.017
497.84,0.017
496.86,0.017
495.88,0.017
494.9,0.017
493.92,0.017
492.94,0.017
491.96,0.016
490.98,0.016
490.0,0.016
489.02,0.016
488.03999999999996,0.016
487.06,0.016
486.08,0.015
485.09999999999997,0.016
484.12,0.016
483.14,0.016
482.15999999999997,0.016
481.18,0.016
480.2,0.016
479.21999999999997,0.016
478.24,0.017
477.26,0.017
476.28,0.018
475.3,0.018
474.32,0.018
473.34,0.019
472.36,0.018
471.38,0.018
470.4,0.017
469.42,0.017
468.44,0.017
467.46,0.017
466.48,0.018
465.5,0.018
464.52,0.018
463.53999999999996,0.018
462.56,0.018
461.58,0.018
460.59999999999997,0.019
459.62,0.018
458.64,0.020
457.65999999999997,0.021
456.68,0.023
455.7,0.024
454.71999999999997,0.026
453.74,0.026
452.76,0.027
451.78,0.028
450.8,0.029
449.82,0.031
448.84,0.033
447.86,0.034
446.88,0.032
445.9,0.031
444.92,0.031
443.94,0.033
442.96,0.036
441.98,0.040
441.0,0.043
440.02,0.046
439.03999999999996,0.046
438.06,0.043
437.08,0.039
436.09999999999997,0.035
435.12,0.031
434.14,0.026
433.15999999999997,0.022
432.18,0.019
431.2,0.016
430.21999999999997,0.015
429.24,0.014
428.26,0.014
427.28,0.014
426.3,0.015
425.32,0.015
424.34,0.015
423.36,0.015
422.38,0.014
421.4,0.014
420.42,0.014
419.44,0.013
418.46,0.013
417.48,0.013
416.5,0.013
415.52,0.014
414.54,0.014
413.56,0.014
412.58,0.013
411.59999999999997,0.013
410.62,0.013
409.64,0.012
408.65999999999997,0.012
407.68,0.011
406.7,0.011
405.71999999999997,0.012
404.74,0.012
403.76,0.012
402.78,0.011
401.8,0.011
400.82,0.011
399.84,0.010
398.86,0.010
397.88,0.011
396.9,0.010
395.92,0.010
394.94,0.010
393.96,0.010
392.98,0.010
392.0,0.010
391.02,0.010
390.04,0.010
389.06,0.010
388.08,0.010
387.09999999999997,0.010
386.12,0.010
385.14,0.010
384.15999999999997,0.009
383.18,0.009
382.2,0.009
381.21999999999997,0.009
380.24,0.009
