wavelength,amplitude
966.77,1.000
965.79,1.000
964.81,1.000
963.8299999999999,1.000
962.85,1.000
961.87,1.000
960.89,1.000
959.91,1.000
958.93,1.000
957.9499999999999,1.000
956.97,1.000
955.99,1.000
955.01,1.000
954.03,1.000
953.05,1.000
952.0699999999999,1.000
951.09,1.000
950.11,1.000
949.13,1.000
948.15,1.000
947.17,1.000
946.1899999999999,1.000
945.21,1.000
944.23,1.000
943.25,1.000
942.27,1.000
941.29,1.000
940.31,1.000
939.3299999999999,1.000
938.35,1.000
937.37,1.000
936.39,1.000
935.41,1.000
934.43,1.000
933.4499999999999,1.000
932.47,1.000
931.49,1.000
930.51,1.000
929.53,1.000
928.55,1.000
927.5699999999999,1.000
926.59,1.000
925.61,1.000
924.63,1.000
923.65,1.000
922.67,1.000
921.6899999999999,1.000
920.71,1.000
919.73,1.000
918.75,1.000
917.77,0.000
916.79,0.000
915.81,0.000
914.8299999999999,0.007
913.85,0.015
912.87,0.022
911.89,0.007
910.91,0.007
909.93,0.018
908.9499999999999,0.011
907.97,0.007
906.99,0.007
906.01,0.000
905.03,0.007
904.05,0.007
903.0699999999999,0.007
902.09,0.000
901.11,0.000
900.13,0.007
899.15,0.000
898.17,0.011
897.1899999999999,0.011
896.21,0.011
895.23,0.015
894.25,0.015
893.27,0.007
892.29,0.022
891.31,0.015
890.3299999999999,0.015
889.35,0.007
888.37,0.000
887.39,0.007
886.41,0.000
885.43,0.000
884.4499999999999,0.000
883.47,0.000
882.49,0.007
881.51,1.000
880.53,1.000
879.55,1.000
878.5699999999999,1.000
877.59,1.000
876.61,1.000
875.63,1.000
874.65,1.000
873.67,1.000
872.6899999999999,1.000
871.71,1.000
870.73,1.000
869.75,1.000
868.77,1.000
867.79,1.000
866.81,1.000
865.83,1.000
864.85,1.000
863.87,1.000
862.89,1.000
861.91,1.000
860.93,1.000
859.9499999999999,1.000
858.97,1.000
857.99,1.000
857.01,1.000
856.03,1.000
855.05,1.000
854.0699999999999,1.000
853.09,1.000
852.11,1.000
851.13,1.000
850.15,1.000
849.17,1.000
848.1899999999999,1.000
847.21,1.000
846.23,1.000
845.25,1.000
844.27,1.000
843.29,1.000
842.31,1.000
841.33,1.000
840.35,1.000
839.37,1.000
838.39,1.000
837.41,1.000
836.43,1.000
835.4499999999999,1.000
834.47,1.000
833.49,1.000
832.51,1.000
831.53,1.000
830.55,1.000
829.5699999999999,1.000
828.59,1.000
827.61,1.000
826.63,1.000
825.65,1.000
824.67,1.000
823.6899999999999,1.000
822.71,1.000
821.73,0.006
820.75,0.013
819.77,0.015
818.79,0.007
817.81,0.018
816.83,0.011
815.85,0.017
814.87,0.017
813.89,0.000
812.91,0.000
811.93,0.000
810.9499999999999,0.000
809.97,0.000
808.99,0.000
808.01,0.011
807.03,0.011
806.05,0.016
805.0699999999999,0.009
804.09,0.004
803.11,0.004
802.13,0.000
801.15,0.007
800.17,0.014
799.1899999999999,0.014
798.21,0.021
797.23,0.014
796.25,0.014
795.27,0.014
794.29,0.007
793.31,0.000
792.33,0.000
791.35,0.000
790.37,0.014
789.39,0.000
788.41,0.000
787.43,0.000
786.4499999999999,0.005
785.47,0.012
784.49,0.013
783.51,0.901
782.53,0.897
781.55,0.894
780.5699999999999,0.891
779.59,0.888
778.61,0.884
777.63,0.881
776.65,0.878
775.67,0.875
774.6899999999999,0.872
773.71,0.869
772.73,0.866
771.75,0.863
770.77,0.860
769.79,0.857
768.81,0.854
767.83,0.851
766.85,0.848
765.87,0.845
764.89,0.842
763.91,0.839
762.93,0.836
761.9499999999999,0.833
760.97,0.830
759.99,0.828
759.01,0.825
758.03,0.822
757.05,0.819
756.0699999999999,0.817
755.09,0.814
754.11,0.811
753.13,0.808
752.15,0.806
751.17,0.803
750.1899999999999,0.801
749.21,0.798
748.23,0.795
747.25,0.793
746.27,0.790
745.29,0.788
744.31,0.785
743.33,0.783
742.35,0.780
741.37,0.778
740.39,0.775
739.41,0.773
738.43,0.770
737.4499999999999,0.768
736.47,0.765
735.49,0.763
734.51,0.761
733.53,0.758
732.55,0.756
731.5699999999999,0.754
730.59,0.751
729.61,0.749
728.63,0.747
727.65,0.745
726.67,0.742
725.6899999999999,0.740
724.71,0.014
723.73,0.000
722.75,0.005
721.77,0.009
720.79,0.009
719.81,0.020
718.83,0.020
717.85,0.015
716.87,0.009
715.89,0.012
714.91,0.007
713.93,0.004
712.9499999999999,0.004
711.97,0.004
710.99,0.004
710.01,0.014
709.03,0.009
708.05,0.009
707.0699999999999,0.009
706.09,0.005
705.11,0.001
704.13,0.005
703.15,0.004
702.17,0.009
701.1899999999999,0.014
700.21,0.014
699.23,0.009
698.25,0.010
697.27,0.010
696.29,0.015
695.31,0.010
694.33,0.010
693.35,0.010
692.37,0.006
691.39,0.007
690.41,0.012
689.43,0.012
688.4499999999999,0.012
687.47,0.012
686.49,0.010
685.51,0.658
684.53,0.657
683.55,0.655
682.5699999999999,0.653
681.59,0.651
680.61,0.650
679.63,0.648
678.65,0.646
677.67,0.645
676.6899999999999,0.643
675.71,0.641
674.73,0.640
673.75,0.638
672.77,0.636
671.79,0.635
670.81,0.633
669.83,0.631
668.85,0.630
667.87,0.628
666.89,0.626
665.91,0.625
664.93,0.623
663.9499999999999,0.622
662.97,0.620
661.99,0.619
661.01,0.617
660.03,0.615
659.05,0.614
658.0699999999999,0.612
657.09,0.611
656.11,0.609
655.13,0.608
654.15,0.606
653.17,0.605
652.1899999999999,0.603
651.21,0.602
650.23,0.600
649.25,0.599
648.27,0.597
647.29,0.596
646.31,0.595
645.33,0.593
644.35,0.592
643.37,0.590
642.39,0.589
641.41,0.587
640.43,0.586
639.4499999999999,0.585
638.47,0.583
637.49,0.582
636.51,0.580
635.53,0.579
634.55,0.578
633.5699999999999,0.576
632.59,0.575
631.61,0.574
630.63,0.572
629.65,0.571
628.67,0.570
627.6899999999999,0.016
626.71,0.016
625.73,0.007
624.75,0.011
623.77,0.011
622.79,0.011
621.81,0.011
620.83,0.011
619.85,0.011
618.87,0.011
617.89,0.011
616.91,0.004
615.93,0.011
614.95,0.007
613.97,0.003
612.99,0.003
612.01,0.006
611.03,0.006
610.05,0.007
609.0699999999999,0.004
608.09,0.010
607.11,0.010
606.13,0.011
605.15,0.015
604.17,0.008
603.1899999999999,0.008
602.21,0.007
601.23,0.010
600.25,0.013
599.27,0.010
598.29,0.021
597.31,0.020
596.33,0.028
595.35,0.036
594.37,0.036
593.39,0.037
592.41,0.037
591.43,0.040
590.45,0.028
589.47,0.024
588.49,0.028
587.51,0.519
586.53,0.518
585.55,0.517
584.5699999999999,0.518
583.59,0.521
582.61,0.524
581.63,0.528
580.65,0.531
579.67,0.535
578.6899999999999,0.538
577.71,0.542
576.73,0.546
575.75,0.550
574.77,0.554
573.79,0.558
572.81,0.562
571.83,0.566
570.85,0.568
569.87,0.562
568.89,0.555
567.91,0.549
566.93,0.543
565.95,0.537
564.97,0.531
563.99,0.525
563.01,0.520
562.03,0.514
561.05,0.508
560.0699999999999,0.503
559.09,0.498
558.11,0.493
557.13,0.487
556.15,0.486
555.17,0.485
554.1899999999999,0.484
553.21,0.483
552.23,0.482
551.25,0.481
550.27,0.480
549.29,0.479
548.31,0.478
547.33,0.477
546.35,0.477
545.37,0.476
544.39,0.475
543.41,0.474
542.43,0.473
541.45,0.472
540.47,0.471
539.49,0.470
538.51,0.469
537.53,0.468
536.55,0.467
535.5699999999999,0.467
534.59,0.466
533.61,0.465
532.63,0.464
531.65,0.014
530.67,0.018
529.6899999999999,0.018
528.71,0.014
527.73,0.011
526.75,0.014
525.77,0.014
524.79,0.011
523.81,0.011
522.83,0.008
521.85,0.014
520.87,0.014
519.89,0.014
518.91,0.017
517.93,0.011
516.95,0.014
515.97,0.016
514.99,0.019
514.01,0.012
513.03,0.012
512.05,0.012
511.07,0.012
510.09,0.012
509.11,0.006
508.13,0.009
507.15,0.009
506.17,0.006
505.19,0.009
504.21,0.015
503.23,0.012
502.25,0.009
501.27,0.006
500.28999999999996,0.006
499.31,0.006
498.33,0.010
497.34999999999997,0.006
496.37,0.004
495.39,0.006
494.40999999999997,0.010
493.43,0.010
492.45,0.006
491.46999999999997,0.013
490.49,0.012
489.51,0.428
488.53,0.427
487.55,0.427
486.57,0.426
485.59,0.425
484.61,0.424
483.63,0.424
482.65,0.423
481.67,0.422
480.69,0.422
479.71,0.421
478.73,0.420
477.75,0.419
476.77,0.419
475.78999999999996,0.418
474.81,0.417
473.83,0.417
472.84999999999997,0.416
471.87,0.415
470.89,0.414
469.90999999999997,0.414
468.93,0.413
467.95,0.412
466.96999999999997,0.412
465.99,0.411
465.01,0.410
464.03,0.410
463.05,0.409
462.07,0.408
461.09,0.408
460.11,0.407
459.13,0.406
458.15,0.406
457.17,0.405
456.19,0.404
455.21,0.404
454.23,0.403
453.25,0.402
452.27,0.402
451.28999999999996,0.401
450.31,0.400
449.33,0.400
448.34999999999997,0.399
447.37,0.398
446.39,0.398
445.40999999999997,0.397
444.43,0.396
443.45,0.396
442.46999999999997,0.395
441.49,0.394
440.51,0.394
439.53,0.393
438.55,0.393
437.57,0.392
436.59,0.391
435.61,0.391
434.63,0.001
433.65,0.004
432.67,0.006
431.69,0.006
430.71,0.004
429.73,0.004
428.75,0.001
427.77,0.001
426.79,0.004
425.81,0.003
424.83,0.006
423.84999999999997,0.003
422.87,0.000
421.89,0.003
420.90999999999997,0.000
419.93,0.000
418.95,0.006
417.96999999999997,0.007
416.99,0.004
416.01,0.000
415.03,0.003
414.05,0.001
413.07,0.003
412.09,0.000
411.11,0.000
410.13,0.003
409.15,0.000
408.17,0.003
407.19,0.000
406.21,0.005
405.23,0.003
404.25,0.003
403.27,0.001
402.29,0.001
401.31,0.001
400.33,0.003
399.34999999999997,0.003
398.37,0.003
397.39,0.000
396.40999999999997,0.000
395.43,0.003
394.45,0.003
393.46999999999997,0.003
392.49,0.003
391.51,0.364
390.53,0.364
389.55,0.363
388.57,0.363
387.59,0.362
386.61,0.362
385.63,0.361
384.65,0.361
383.67,0.360
382.69,0.360
381.71,0.359
380.73,0.359
