wavelength,amplitude
956.45375,0.116
955.4702500000001,0.105
954.48675,0.105
953.5032500000001,0.105
952.51975,0.107
951.53625,0.105
950.5527500000001,0.102
949.56925,0.100
948.5857500000001,0.099
947.60225,0.099
946.6187500000001,0.103
945.63525,0.099
944.65175,0.098
943.6682500000001,0.099
942.68475,0.102
941.7012500000001,0.101
940.71775,0.099
939.7342500000001,0.101
938.75075,0.104
937.76725,0.108
936.78375,0.109
935.80025,0.108
934.8167500000001,0.105
933.83325,0.100
932.8497500000001,0.102
931.86625,0.100
930.88275,0.098
929.89925,0.103
928.91575,0.102
927.9322500000001,0.100
926.94875,0.096
925.9652500000001,0.095
924.98175,0.095
923.99825,0.096
923.01475,0.097
922.03125,0.103
921.0477500000001,0.103
920.06425,0.101
919.0807500000001,0.096
918.09725,0.098
917.11375,0.099
916.13025,0.099
915.14675,0.100
914.1632500000001,0.102
913.17975,0.104
912.1962500000001,0.104
911.21275,0.100
910.2292500000001,0.105
909.24575,0.101
908.26225,0.100
907.2787500000001,0.104
906.29525,0.106
905.3117500000001,0.101
904.32825,0.098
903.3447500000001,0.095
902.36125,0.096
901.37775,0.098
900.39425,0.102
899.41075,0.095
898.4272500000001,0.091
897.44375,0.090
896.4602500000001,0.093
895.47675,0.097
894.49325,0.093
893.50975,0.092
892.52625,0.093
891.5427500000001,0.087
890.55925,0.087
889.5757500000001,0.084
888.59225,0.087
887.60875,0.093
886.62525,0.090
885.64175,0.088
884.6582500000001,0.091
883.67475,0.092
882.6912500000001,0.092
881.70775,0.086
880.72425,0.084
879.74075,0.085
878.75725,0.087
877.7737500000001,0.093
876.79025,0.085
875.8067500000001,0.087
874.82325,0.089
873.83975,0.091
872.85625,0.092
871.87275,0.094
870.8892500000001,0.095
869.90575,0.097
868.9222500000001,0.098
867.93875,0.092
866.9552500000001,0.089
865.97175,0.089
864.98825,0.088
864.0047500000001,0.090
863.02125,0.088
862.0377500000001,0.089
861.05425,0.090
860.0707500000001,0.093
859.08725,0.094
858.10375,0.092
857.12025,0.097
856.13675,0.099
855.1532500000001,0.104
854.16975,0.116
853.1862500000001,0.104
852.20275,0.101
851.21925,0.099
850.23575,0.092
849.25225,0.091
848.2687500000001,0.093
847.28525,0.095
846.3017500000001,0.097
845.31825,0.099
844.33475,0.101
843.35125,0.100
842.36775,0.098
841.3842500000001,0.098
840.40075,0.094
839.4172500000001,0.088
838.43375,0.089
837.45025,0.088
836.46675,0.087
835.48325,0.090
834.4997500000001,0.098
833.51625,0.096
832.5327500000001,0.094
831.54925,0.087
830.56575,0.083
829.58225,0.083
828.59875,0.090
827.6152500000001,0.089
826.63175,0.093
825.6482500000001,0.087
824.66475,0.093
823.6812500000001,0.098
822.69775,0.097
821.71425,0.092
820.7307500000001,0.090
819.74725,0.086
818.7637500000001,0.088
817.78025,0.088
816.7967500000001,0.086
815.81325,0.088
814.82975,0.094
813.84625,0.096
812.86275,0.100
811.8792500000001,0.103
810.89575,0.097
809.9122500000001,0.099
808.92875,0.098
807.94525,0.096
806.96175,0.097
805.97825,0.089
804.9947500000001,0.091
804.01125,0.088
803.0277500000001,0.087
802.04425,0.087
801.06075,0.085
800.07725,0.081
799.09375,0.081
798.1102500000001,0.080
797.12675,0.080
796.1432500000001,0.075
795.15975,0.076
794.17625,0.081
793.19275,0.076
792.20925,0.078
791.2257500000001,0.076
790.24225,0.076
789.2587500000001,0.074
788.27525,0.074
787.29175,0.074
786.30825,0.067
785.32475,0.068
784.3412500000001,0.066
783.35775,0.064
782.3742500000001,0.063
781.39075,0.065
780.40725,0.065
779.42375,0.062
778.44025,0.064
777.45675,0.065
776.47325,0.065
775.4897500000001,0.062
774.50625,0.057
773.5227500000001,0.058
772.53925,0.056
771.55575,0.058
770.57225,0.058
769.58875,0.057
768.6052500000001,0.064
767.62175,0.061
766.6382500000001,0.059
765.65475,0.059
764.67125,0.059
763.68775,0.056
762.70425,0.056
761.7207500000001,0.055
760.73725,0.057
759.7537500000001,0.055
758.77025,0.057
757.78675,0.056
756.80325,0.056
755.81975,0.055
754.8362500000001,0.055
753.85275,0.055
752.8692500000001,0.053
751.88575,0.054
750.90225,0.057
749.91875,0.055
748.93525,0.054
747.9517500000001,0.054
746.96825,0.052
745.9847500000001,0.053
745.00125,0.053
744.01775,0.054
743.03425,0.053
742.05075,0.056
741.0672500000001,0.052
740.08375,0.047
739.1002500000001,0.044
738.11675,0.046
737.13325,0.048
736.14975,0.049
735.16625,0.051
734.18275,0.053
733.19925,0.056
732.2157500000001,0.052
731.23225,0.054
730.2487500000001,0.053
729.26525,0.052
728.28175,0.050
727.29825,0.052
726.31475,0.054
725.3312500000001,0.053
724.34775,0.059
723.3642500000001,0.064
722.38075,0.063
721.39725,0.074
720.41375,0.095
719.43025,0.123
718.4467500000001,0.190
717.46325,0.331
716.4797500000001,0.534
715.49625,0.747
714.51275,0.923
713.52925,1.000
712.54575,0.952
711.5622500000001,0.830
710.57875,0.655
709.5952500000001,0.491
708.61175,0.368
707.62825,0.307
706.64475,0.264
705.66125,0.241
704.6777500000001,0.225
703.69425,0.198
702.7107500000001,0.173
701.72725,0.148
700.74375,0.131
699.76025,0.116
698.77675,0.104
697.7932500000001,0.095
696.80975,0.083
695.8262500000001,0.072
694.84275,0.065
693.85925,0.062
692.87575,0.061
691.89225,0.060
690.90875,0.062
689.92525,0.066
688.9417500000001,0.067
687.95825,0.069
686.97475,0.067
685.99125,0.069
685.00775,0.066
684.02425,0.070
683.04075,0.072
682.0572500000001,0.072
681.07375,0.069
680.0902500000001,0.072
679.10675,0.070
678.12325,0.068
677.13975,0.067
676.15625,0.070
675.1727500000001,0.069
674.18925,0.075
673.2057500000001,0.079
672.22225,0.082
671.23875,0.087
670.25525,0.089
669.27175,0.090
668.2882500000001,0.091
667.30475,0.092
666.3212500000001,0.092
665.33775,0.095
664.35425,0.097
663.37075,0.101
662.38725,0.110
661.4037500000001,0.119
660.42025,0.122
659.4367500000001,0.124
658.45325,0.125
657.46975,0.122
656.48625,0.123
655.50275,0.127
654.51925,0.136
653.53575,0.143
652.5522500000001,0.143
651.56875,0.154
650.58525,0.160
649.60175,0.164
648.61825,0.171
647.63475,0.178
646.65125,0.179
645.6677500000001,0.177
644.68425,0.171
643.70075,0.168
642.71725,0.163
641.73375,0.171
640.75025,0.181
639.76675,0.186
638.7832500000001,0.187
637.79975,0.185
636.8162500000001,0.183
635.83275,0.185
634.84925,0.184
633.86575,0.177
632.88225,0.180
631.8987500000001,0.180
630.91525,0.181
629.9317500000001,0.179
628.94825,0.176
627.96475,0.170
626.98125,0.163
625.99775,0.159
625.0142500000001,0.157
624.03075,0.164
623.0472500000001,0.178
622.06375,0.182
621.08025,0.177
620.09675,0.166
619.11325,0.142
618.1297500000001,0.132
617.14625,0.118
616.1627500000001,0.108
615.17925,0.102
614.19575,0.097
613.21225,0.095
612.22875,0.092
611.24525,0.086
610.26175,0.082
609.2782500000001,0.078
608.29475,0.074
607.31125,0.070
606.32775,0.072
605.34425,0.068
604.36075,0.060
603.37725,0.057
602.3937500000001,0.059
601.41025,0.059
600.42675,0.059
599.44325,0.056
598.45975,0.055
597.47625,0.055
596.49275,0.054
595.5092500000001,0.053
594.52575,0.054
593.5422500000001,0.053
592.55875,0.053
591.57525,0.052
590.59175,0.057
589.60825,0.056
588.6247500000001,0.056
587.64125,0.054
586.6577500000001,0.054
585.67425,0.054
584.69075,0.055
583.70725,0.057
582.72375,0.060
581.7402500000001,0.061
580.75675,0.063
579.7732500000001,0.064
578.78975,0.066
577.80625,0.069
576.82275,0.074
575.83925,0.073
574.8557500000001,0.074
573.87225,0.079
572.8887500000001,0.077
571.90525,0.078
570.92175,0.078
569.93825,0.077
568.95475,0.074
567.97125,0.075
566.98775,0.076
566.0042500000001,0.075
565.02075,0.077
564.03725,0.076
563.05375,0.078
562.07025,0.076
561.08675,0.082
560.10325,0.083
559.1197500000001,0.084
558.13625,0.083
557.15275,0.081
556.16925,0.081
555.18575,0.084
554.20225,0.083
553.21875,0.084
552.2352500000001,0.086
551.25175,0.090
550.26825,0.091
549.28475,0.092
548.30125,0.090
547.31775,0.092
546.33425,0.093
545.3507500000001,0.094
544.36725,0.094
543.3837500000001,0.098
542.40025,0.102
541.41675,0.105
540.43325,0.108
539.44975,0.116
538.4662500000001,0.123
537.48275,0.129
536.4992500000001,0.135
535.51575,0.142
534.53225,0.148
533.54875,0.155
532.56525,0.161
531.58175,0.167
530.59825,0.178
529.6147500000001,0.182
528.63125,0.190
527.64775,0.198
526.66425,0.203
525.68075,0.212
524.69725,0.228
523.71375,0.247
522.7302500000001,0.266
521.74675,0.283
520.76325,0.287
519.77975,0.286
518.79625,0.286
517.81275,0.305
516.82925,0.362
515.8457500000001,0.489
514.86225,0.627
513.87875,0.720
512.89525,0.742
511.91175000000004,0.684
510.92825000000005,0.567
509.94475,0.457
508.96125,0.387
507.97775,0.350
506.99425,0.335
506.01075000000003,0.326
505.02725000000004,0.310
504.04375000000005,0.295
503.06025,0.279
502.07675,0.272
501.09325,0.269
500.10975,0.272
499.12625,0.275
498.14275000000004,0.277
497.15925000000004,0.279
496.17575,0.285
495.19225,0.292
494.20875,0.303
493.22525,0.313
492.24175,0.327
491.25825000000003,0.343
490.27475000000004,0.353
489.29125000000005,0.360
488.30775,0.362
487.32425,0.357
486.34075,0.352
485.35725,0.350
484.37375000000003,0.352
483.39025000000004,0.360
482.40675000000005,0.365
481.42325,0.367
480.43975,0.366
479.45625,0.360
478.47275,0.360
477.48925,0.361
476.50575000000003,0.361
475.52225000000004,0.364
474.53875,0.364
473.55525,0.368
472.57175,0.367
471.58825,0.366
470.60475,0.365
469.62125000000003,0.365
468.63775000000004,0.367
467.65425000000005,0.366
466.67075,0.363
465.68725,0.358
464.70375,0.349
463.72025,0.347
462.73675000000003,0.343
461.75325000000004,0.344
460.76975000000004,0.350
459.78625,0.365
458.80275,0.379
457.81925,0.384
456.83575,0.381
455.85225,0.375
454.86875000000003,0.360
453.88525000000004,0.352
452.90175,0.346
451.91825,0.340
450.93475,0.337
449.95125,0.335
448.96775,0.338
447.98425000000003,0.342
447.00075000000004,0.349
446.01725000000005,0.358
445.03375,0.368
444.05025,0.374
443.06675,0.377
442.08325,0.380
441.09975000000003,0.381
440.11625000000004,0.377
439.13275000000004,0.371
438.14925,0.366
437.16575,0.361
436.18225,0.359
435.19875,0.362
434.21525,0.365
433.23175000000003,0.371
432.24825000000004,0.378
431.26475,0.384
430.28125,0.386
429.29775,0.385
428.31425,0.379
427.33075,0.371
426.34725000000003,0.361
425.36375000000004,0.357
424.38025,0.354
423.39675,0.351
422.41325,0.347
421.42975,0.339
420.44625,0.330
419.46275,0.319
418.47925000000004,0.304
417.49575000000004,0.287
416.51225,0.276
415.52875,0.263
414.54525,0.245
413.56175,0.230
412.57825,0.217
411.59475000000003,0.206
410.61125000000004,0.194
409.62775,0.181
408.64425,0.165
407.66075,0.150
406.67725,0.138
405.69375,0.126
404.71025000000003,0.113
403.72675000000004,0.098
402.74325,0.085
401.75975,0.076
400.77625,0.070
399.79275,0.063
398.80925,0.054
397.82575,0.051
396.84225000000004,0.048
395.85875000000004,0.044
394.87525,0.040
393.89175,0.039
392.90825,0.036
391.92475,0.033
390.94125,0.030
389.95775000000003,0.029
388.97425000000004,0.029
387.99075,0.028
387.00725,0.028
386.02375,0.027
385.04025,0.026
384.05675,0.025
383.07325000000003,0.024
382.08975000000004,0.023
381.10625,0.024
380.12275,0.024
