wavelength,amplitude
955.5,0.074
954.52,0.066
953.54,0.065
952.56,0.065
951.5799999999999,0.062
950.6,0.065
949.62,0.066
948.64,0.064
947.66,0.062
946.68,0.065
945.6999999999999,0.063
944.72,0.063
943.74,0.065
942.76,0.060
941.78,0.061
940.8,0.062
939.8199999999999,0.066
938.84,0.068
937.86,0.067
936.88,0.077
935.9,0.083
934.92,0.082
933.9399999999999,0.086
932.96,0.089
931.98,0.095
931.0,0.094
930.02,0.092
929.04,0.091
928.06,0.094
927.0799999999999,0.095
926.1,0.087
925.12,0.087
924.14,0.088
923.16,0.079
922.18,0.083
921.1999999999999,0.077
920.22,0.077
919.24,0.076
918.26,0.072
917.28,0.070
916.3,0.072
915.3199999999999,0.072
914.34,0.073
913.36,0.073
912.38,0.077
911.4,0.078
910.42,0.076
909.4399999999999,0.073
908.46,0.065
907.48,0.065
906.5,0.068
905.52,0.070
904.54,0.064
903.56,0.063
902.5799999999999,0.062
901.6,0.062
900.62,0.055
899.64,0.057
898.66,0.058
897.68,0.054
896.6999999999999,0.051
895.72,0.056
894.74,0.048
893.76,0.049
892.78,0.049
891.8,0.048
890.8199999999999,0.047
889.84,0.046
888.86,0.044
887.88,0.044
886.9,0.047
885.92,0.043
884.9399999999999,0.046
883.96,0.047
882.98,0.049
882.0,0.050
881.02,0.048
880.04,0.050
879.06,0.049
878.0799999999999,0.053
877.1,0.061
876.12,0.051
875.14,0.052
874.16,0.052
873.18,0.051
872.1999999999999,0.049
871.22,0.053
870.24,0.052
869.26,0.053
868.28,0.052
867.3,0.047
866.3199999999999,0.050
865.34,0.053
864.36,0.052
863.38,0.054
862.4,0.058
861.42,0.056
860.4399999999999,0.061
859.46,0.063
858.48,0.065
857.5,0.062
856.52,0.065
855.54,0.065
854.56,0.066
853.58,0.069
852.6,0.056
851.62,0.055
850.64,0.053
849.66,0.051
848.68,0.049
847.6999999999999,0.045
846.72,0.048
845.74,0.047
844.76,0.045
843.78,0.050
842.8,0.053
841.8199999999999,0.054
840.84,0.052
839.86,0.051
838.88,0.048
837.9,0.049
836.92,0.050
835.9399999999999,0.049
834.96,0.050
833.98,0.055
833.0,0.050
832.02,0.047
831.04,0.046
830.06,0.043
829.08,0.042
828.1,0.047
827.12,0.047
826.14,0.043
825.16,0.047
824.18,0.046
823.1999999999999,0.050
822.22,0.046
821.24,0.039
820.26,0.045
819.28,0.048
818.3,0.048
817.3199999999999,0.047
816.34,0.044
815.36,0.041
814.38,0.044
813.4,0.043
812.42,0.046
811.4399999999999,0.048
810.46,0.045
809.48,0.042
808.5,0.041
807.52,0.043
806.54,0.037
805.56,0.040
804.58,0.041
803.6,0.041
802.62,0.045
801.64,0.047
800.66,0.042
799.68,0.041
798.6999999999999,0.040
797.72,0.045
796.74,0.046
795.76,0.044
794.78,0.044
793.8,0.047
792.8199999999999,0.051
791.84,0.052
790.86,0.055
789.88,0.057
788.9,0.060
787.92,0.067
786.9399999999999,0.071
785.96,0.077
784.98,0.082
784.0,0.085
783.02,0.094
782.04,0.099
781.06,0.104
780.08,0.100
779.1,0.090
778.12,0.103
777.14,0.094
776.16,0.088
775.18,0.078
774.1999999999999,0.077
773.22,0.070
772.24,0.064
771.26,0.059
770.28,0.056
769.3,0.059
768.3199999999999,0.061
767.34,0.060
766.36,0.059
765.38,0.057
764.4,0.056
763.42,0.054
762.4399999999999,0.054
761.46,0.054
760.48,0.052
759.5,0.052
758.52,0.053
757.54,0.057
756.56,0.057
755.58,0.058
754.6,0.059
753.62,0.052
752.64,0.051
751.66,0.051
750.68,0.046
749.6999999999999,0.052
748.72,0.051
747.74,0.049
746.76,0.050
745.78,0.048
744.8,0.046
743.8199999999999,0.045
742.84,0.044
741.86,0.041
740.88,0.045
739.9,0.049
738.92,0.049
737.9399999999999,0.050
736.96,0.050
735.98,0.048
735.0,0.046
734.02,0.045
733.04,0.043
732.06,0.042
731.08,0.046
730.1,0.045
729.12,0.045
728.14,0.049
727.16,0.047
726.18,0.045
725.1999999999999,0.048
724.22,0.051
723.24,0.056
722.26,0.054
721.28,0.055
720.3,0.058
719.3199999999999,0.060
718.34,0.060
717.36,0.064
716.38,0.062
715.4,0.063
714.42,0.066
713.4399999999999,0.064
712.46,0.066
711.48,0.069
710.5,0.072
709.52,0.077
708.54,0.079
707.56,0.087
706.58,0.086
705.6,0.086
704.62,0.086
703.64,0.092
702.66,0.091
701.68,0.090
700.6999999999999,0.091
699.72,0.092
698.74,0.089
697.76,0.085
696.78,0.083
695.8,0.084
694.8199999999999,0.086
693.84,0.088
692.86,0.086
691.88,0.087
690.9,0.090
689.92,0.091
688.9399999999999,0.098
687.96,0.104
686.98,0.111
686.0,0.119
685.02,0.130
684.04,0.146
683.06,0.160
682.08,0.170
681.1,0.179
680.12,0.190
679.14,0.197
678.16,0.210
677.18,0.214
676.1999999999999,0.217
675.22,0.225
674.24,0.223
673.26,0.223
672.28,0.226
671.3,0.221
670.3199999999999,0.220
669.34,0.222
668.36,0.224
667.38,0.233
666.4,0.249
665.42,0.268
664.4399999999999,0.293
663.46,0.329
662.48,0.375
661.5,0.435
660.52,0.487
659.54,0.542
658.56,0.577
657.58,0.600
656.6,0.617
655.62,0.616
654.64,0.608
653.66,0.592
652.68,0.572
651.6999999999999,0.532
650.72,0.483
649.74,0.430
648.76,0.374
647.78,0.320
646.8,0.273
645.8199999999999,0.251
644.84,0.241
643.86,0.242
642.88,0.243
641.9,0.239
640.92,0.226
639.9399999999999,0.222
638.96,0.221
637.98,0.222
637.0,0.227
636.02,0.235
635.04,0.240
634.06,0.239
633.08,0.254
632.1,0.262
631.12,0.274
630.14,0.290
629.16,0.299
628.18,0.304
627.2,0.310
626.22,0.318
625.24,0.322
624.26,0.329
623.28,0.330
622.3,0.335
621.3199999999999,0.336
620.34,0.328
619.36,0.319
618.38,0.309
617.4,0.298
616.42,0.286
615.4399999999999,0.271
614.46,0.256
613.48,0.236
612.5,0.222
611.52,0.204
610.54,0.184
609.56,0.166
608.58,0.151
607.6,0.140
606.62,0.137
605.64,0.137
604.66,0.133
603.68,0.134
602.7,0.136
601.72,0.136
600.74,0.140
599.76,0.144
598.78,0.149
597.8,0.153
596.8199999999999,0.159
595.84,0.169
594.86,0.173
593.88,0.181
592.9,0.191
591.92,0.205
590.9399999999999,0.227
589.96,0.249
588.98,0.275
588.0,0.304
587.02,0.338
586.04,0.399
585.06,0.475
584.08,0.559
583.1,0.653
582.12,0.746
581.14,0.823
580.16,0.877
579.18,0.919
578.2,0.958
577.22,0.988
576.24,1.000
575.26,0.994
574.28,0.967
573.3,0.927
572.3199999999999,0.870
571.34,0.800
570.36,0.727
569.38,0.661
568.4,0.608
567.42,0.547
566.4399999999999,0.492
565.46,0.446
564.48,0.416
563.5,0.396
562.52,0.381
561.54,0.363
560.56,0.351
559.58,0.341
558.6,0.334
557.62,0.327
556.64,0.321
555.66,0.319
554.68,0.317
553.7,0.325
552.72,0.331
551.74,0.335
550.76,0.336
549.78,0.347
548.8,0.348
547.8199999999999,0.358
546.84,0.366
545.86,0.374
544.88,0.378
543.9,0.385
542.92,0.392
541.9399999999999,0.399
540.96,0.406
539.98,0.416
539.0,0.418
538.02,0.424
537.04,0.430
536.06,0.433
535.08,0.432
534.1,0.435
533.12,0.442
532.14,0.451
531.16,0.455
530.18,0.466
529.2,0.474
528.22,0.483
527.24,0.491
526.26,0.506
525.28,0.517
524.3,0.536
523.3199999999999,0.552
522.34,0.569
521.36,0.589
520.38,0.606
519.4,0.625
518.42,0.639
517.4399999999999,0.650
516.46,0.663
515.48,0.671
514.5,0.673
513.52,0.671
512.54,0.664
511.56,0.651
510.58,0.634
509.59999999999997,0.616
508.62,0.594
507.64,0.570
506.65999999999997,0.545
505.68,0.517
504.7,0.495
503.71999999999997,0.478
502.74,0.458
501.76,0.440
500.78,0.421
499.8,0.402
498.82,0.381
497.84,0.362
496.86,0.343
495.88,0.326
494.9,0.310
493.92,0.299
492.94,0.292
491.96,0.289
490.98,0.286
490.0,0.287
489.02,0.284
488.03999999999996,0.283
487.06,0.283
486.08,0.283
485.09999999999997,0.284
484.12,0.283
483.14,0.285
482.15999999999997,0.285
481.18,0.287
480.2,0.285
479.21999999999997,0.281
478.24,0.280
477.26,0.279
476.28,0.277
475.3,0.275
474.32,0.273
473.34,0.271
472.36,0.269
471.38,0.265
470.4,0.260
469.42,0.256
468.44,0.253
467.46,0.251
466.48,0.251
465.5,0.257
464.52,0.266
463.53999999999996,0.284
462.56,0.302
461.58,0.320
460.59999999999997,0.335
459.62,0.341
458.64,0.342
457.65999999999997,0.339
456.68,0.332
455.7,0.316
454.71999999999997,0.297
453.74,0.269
452.76,0.234
451.78,0.193
450.8,0.163
449.82,0.141
448.84,0.126
447.86,0.117
446.88,0.106
445.9,0.096
444.92,0.086
443.94,0.080
442.96,0.072
441.98,0.066
441.0,0.066
440.02,0.064
439.03999999999996,0.064
438.06,0.066
437.08,0.063
436.09999999999997,0.061
435.12,0.060
434.14,0.060
433.15999999999997,0.060
432.18,0.061
431.2,0.064
430.21999999999997,0.069
429.24,0.072
428.26,0.073
427.28,0.074
426.3,0.071
425.32,0.071
424.34,0.070
423.36,0.062
422.38,0.057
421.4,0.048
420.42,0.044
419.44,0.040
418.46,0.036
417.48,0.035
416.5,0.034
415.52,0.031
414.54,0.032
413.56,0.030
412.58,0.030
411.59999999999997,0.030
410.62,0.027
409.64,0.028
408.65999999999997,0.027
407.68,0.028
406.7,0.026
405.71999999999997,0.026
404.74,0.028
403.76,0.026
402.78,0.026
401.8,0.026
400.82,0.025
399.84,0.025
398.86,0.025
397.88,0.026
396.9,0.025
395.92,0.023
394.94,0.024
393.96,0.024
392.98,0.024
392.0,0.026
391.02,0.026
390.04,0.024
389.06,0.024
388.08,0.024
387.09999999999997,0.023
386.12,0.023
385.14,0.023
384.15999999999997,0.023
383.18,0.024
382.2,0.024
381.21999999999997,0.025
380.24,0.025
