wavelength,amplitude
959.42,0.223
958.4399999999999,0.215
957.46,0.219
956.48,0.233
955.5,0.218
954.52,0.224
953.54,0.217
952.56,0.212
951.5799999999999,0.207
950.6,0.216
949.62,0.210
948.64,0.213
947.66,0.213
946.68,0.212
945.6999999999999,0.214
944.72,0.214
943.74,0.220
942.76,0.230
941.78,0.234
940.8,0.245
939.8199999999999,0.240
938.84,0.236
937.86,0.242
936.88,0.237
935.9,0.241
934.92,0.246
933.9399999999999,0.245
932.96,0.234
931.98,0.231
931.0,0.240
930.02,0.235
929.04,0.242
928.06,0.248
927.0799999999999,0.252
926.1,0.242
925.12,0.242
924.14,0.243
923.16,0.243
922.18,0.241
921.1999999999999,0.243
920.22,0.240
919.24,0.247
918.26,0.264
917.28,0.267
916.3,0.275
915.3199999999999,0.277
914.34,0.269
913.36,0.272
912.38,0.268
911.4,0.266
910.42,0.267
909.4399999999999,0.271
908.46,0.278
907.48,0.265
906.5,0.264
905.52,0.269
904.54,0.271
903.56,0.272
902.5799999999999,0.272
901.6,0.271
900.62,0.271
899.64,0.269
898.66,0.275
897.68,0.276
896.6999999999999,0.277
895.72,0.271
894.74,0.289
893.76,0.288
892.78,0.285
891.8,0.282
890.8199999999999,0.290
889.84,0.288
888.86,0.292
887.88,0.301
886.9,0.309
885.92,0.315
884.9399999999999,0.313
883.96,0.326
882.98,0.325
882.0,0.328
881.02,0.320
880.04,0.317
879.06,0.309
878.0799999999999,0.316
877.1,0.317
876.12,0.301
875.14,0.304
874.16,0.295
873.18,0.292
872.1999999999999,0.292
871.22,0.283
870.24,0.290
869.26,0.286
868.28,0.281
867.3,0.276
866.3199999999999,0.262
865.34,0.266
864.36,0.263
863.38,0.261
862.4,0.265
861.42,0.274
860.4399999999999,0.276
859.46,0.277
858.48,0.286
857.5,0.290
856.52,0.280
855.54,0.273
854.56,0.276
853.58,0.295
852.6,0.288
851.62,0.281
850.64,0.289
849.66,0.287
848.68,0.286
847.6999999999999,0.275
846.72,0.281
845.74,0.298
844.76,0.287
843.78,0.276
842.8,0.294
841.8199999999999,0.291
840.84,0.298
839.86,0.307
838.88,0.320
837.9,0.340
836.92,0.335
835.9399999999999,0.342
834.96,0.358
833.98,0.364
833.0,0.354
832.02,0.353
831.04,0.358
830.06,0.349
829.08,0.336
828.1,0.357
827.12,0.354
826.14,0.348
825.16,0.359
824.18,0.352
823.1999999999999,0.354
822.22,0.360
821.24,0.364
820.26,0.378
819.28,0.375
818.3,0.370
817.3199999999999,0.368
816.34,0.367
815.36,0.367
814.38,0.370
813.4,0.380
812.42,0.386
811.4399999999999,0.400
810.46,0.384
809.48,0.392
808.5,0.392
807.52,0.387
806.54,0.388
805.56,0.393
804.58,0.383
803.6,0.382
802.62,0.370
801.64,0.368
800.66,0.373
799.68,0.370
798.6999999999999,0.372
797.72,0.377
796.74,0.382
795.76,0.376
794.78,0.379
793.8,0.379
792.8199999999999,0.382
791.84,0.389
790.86,0.389
789.88,0.394
788.9,0.399
787.92,0.397
786.9399999999999,0.393
785.96,0.393
784.98,0.393
784.0,0.391
783.02,0.387
782.04,0.393
781.06,0.404
780.08,0.413
779.1,0.426
778.12,0.422
777.14,0.428
776.16,0.420
775.18,0.413
774.1999999999999,0.407
773.22,0.399
772.24,0.400
771.26,0.401
770.28,0.404
769.3,0.406
768.3199999999999,0.400
767.34,0.399
766.36,0.393
765.38,0.390
764.4,0.393
763.42,0.388
762.4399999999999,0.389
761.46,0.384
760.48,0.383
759.5,0.383
758.52,0.388
757.54,0.391
756.56,0.395
755.58,0.405
754.6,0.408
753.62,0.407
752.64,0.402
751.66,0.398
750.68,0.395
749.6999999999999,0.398
748.72,0.402
747.74,0.403
746.76,0.401
745.78,0.399
744.8,0.391
743.8199999999999,0.385
742.84,0.384
741.86,0.388
740.88,0.399
739.9,0.398
738.92,0.406
737.9399999999999,0.416
736.96,0.430
735.98,0.431
735.0,0.440
734.02,0.446
733.04,0.447
732.06,0.447
731.08,0.450
730.1,0.446
729.12,0.445
728.14,0.449
727.16,0.452
726.18,0.459
725.1999999999999,0.462
724.22,0.470
723.24,0.474
722.26,0.482
721.28,0.486
720.3,0.494
719.3199999999999,0.501
718.34,0.506
717.36,0.509
716.38,0.518
715.4,0.525
714.42,0.532
713.4399999999999,0.539
712.46,0.553
711.48,0.554
710.5,0.566
709.52,0.576
708.54,0.585
707.56,0.580
706.58,0.589
705.6,0.593
704.62,0.596
703.64,0.598
702.66,0.603
701.68,0.606
700.6999999999999,0.615
699.72,0.625
698.74,0.633
697.76,0.644
696.78,0.636
695.8,0.636
694.8199999999999,0.639
693.84,0.637
692.86,0.652
691.88,0.650
690.9,0.650
689.92,0.652
688.9399999999999,0.648
687.96,0.647
686.98,0.648
686.0,0.650
685.02,0.648
684.04,0.648
683.06,0.643
682.08,0.647
681.1,0.651
680.12,0.647
679.14,0.658
678.16,0.663
677.18,0.663
676.1999999999999,0.652
675.22,0.653
674.24,0.645
673.26,0.644
672.28,0.645
671.3,0.645
670.3199999999999,0.649
669.34,0.644
668.36,0.644
667.38,0.645
666.4,0.648
665.42,0.650
664.4399999999999,0.649
663.46,0.651
662.48,0.650
661.5,0.650
660.52,0.654
659.54,0.654
658.56,0.658
657.58,0.661
656.6,0.654
655.62,0.655
654.64,0.658
653.66,0.656
652.68,0.652
651.6999999999999,0.650
650.72,0.656
649.74,0.654
648.76,0.657
647.78,0.663
646.8,0.664
645.8199999999999,0.664
644.84,0.674
643.86,0.681
642.88,0.682
641.9,0.693
640.92,0.693
639.9399999999999,0.699
638.96,0.701
637.98,0.700
637.0,0.698
636.02,0.704
635.04,0.713
634.06,0.721
633.08,0.719
632.1,0.727
631.12,0.735
630.14,0.743
629.16,0.750
628.18,0.760
627.2,0.772
626.22,0.778
625.24,0.780
624.26,0.791
623.28,0.792
622.3,0.793
621.3199999999999,0.794
620.34,0.795
619.36,0.797
618.38,0.799
617.4,0.817
616.42,0.825
615.4399999999999,0.826
614.46,0.822
613.48,0.820
612.5,0.814
611.52,0.808
610.54,0.807
609.56,0.783
608.58,0.780
607.6,0.773
606.62,0.769
605.64,0.768
604.66,0.763
603.68,0.756
602.7,0.759
601.72,0.766
600.74,0.773
599.76,0.776
598.78,0.766
597.8,0.766
596.8199999999999,0.774
595.84,0.781
594.86,0.785
593.88,0.779
592.9,0.775
591.92,0.780
590.9399999999999,0.798
589.96,0.793
588.98,0.800
588.0,0.803
587.02,0.802
586.04,0.795
585.06,0.794
584.08,0.809
583.1,0.825
582.12,0.831
581.14,0.844
580.16,0.860
579.18,0.875
578.2,0.898
577.22,0.912
576.24,0.921
575.26,0.940
574.28,0.961
573.3,0.975
572.3199999999999,0.980
571.34,0.994
570.36,0.999
569.38,1.000
568.4,0.999
567.42,0.973
566.4399999999999,0.964
565.46,0.957
564.48,0.944
563.5,0.935
562.52,0.938
561.54,0.931
560.56,0.931
559.58,0.936
558.6,0.927
557.62,0.915
556.64,0.912
555.66,0.918
554.68,0.922
553.7,0.911
552.72,0.906
551.74,0.902
550.76,0.902
549.78,0.898
548.8,0.883
547.8199999999999,0.893
546.84,0.895
545.86,0.892
544.88,0.895
543.9,0.897
542.92,0.890
541.9399999999999,0.884
540.96,0.875
539.98,0.871
539.0,0.871
538.02,0.881
537.04,0.889
536.06,0.894
535.08,0.894
534.1,0.902
533.12,0.908
532.14,0.913
531.16,0.917
530.18,0.915
529.2,0.916
528.22,0.921
527.24,0.920
526.26,0.924
525.28,0.916
524.3,0.921
523.3199999999999,0.915
522.34,0.910
521.36,0.905
520.38,0.907
519.4,0.907
518.42,0.906
517.4399999999999,0.903
516.46,0.899
515.48,0.901
514.5,0.886
513.52,0.872
512.54,0.867
511.56,0.845
510.58,0.839
509.59999999999997,0.831
508.62,0.828
507.64,0.818
506.65999999999997,0.790
505.68,0.766
504.7,0.748
503.71999999999997,0.740
502.74,0.739
501.76,0.717
500.78,0.705
499.8,0.695
498.82,0.676
497.84,0.655
496.86,0.629
495.88,0.604
494.9,0.587
493.92,0.574
492.94,0.558
491.96,0.543
490.98,0.531
490.0,0.519
489.02,0.504
488.03999999999996,0.498
487.06,0.492
486.08,0.491
485.09999999999997,0.490
484.12,0.488
483.14,0.482
482.15999999999997,0.478
481.18,0.478
480.2,0.481
479.21999999999997,0.478
478.24,0.470
477.26,0.463
476.28,0.460
475.3,0.454
474.32,0.445
473.34,0.438
472.36,0.433
471.38,0.433
470.4,0.428
469.42,0.423
468.44,0.417
467.46,0.414
466.48,0.411
465.5,0.405
464.52,0.397
463.53999999999996,0.387
462.56,0.378
461.58,0.374
460.59999999999997,0.368
459.62,0.366
458.64,0.361
457.65999999999997,0.355
456.68,0.349
455.7,0.341
454.71999999999997,0.335
453.74,0.331
452.76,0.326
451.78,0.324
450.8,0.322
449.82,0.316
448.84,0.309
447.86,0.305
446.88,0.298
445.9,0.292
444.92,0.284
443.94,0.283
442.96,0.282
441.98,0.283
441.0,0.279
440.02,0.273
439.03999999999996,0.272
438.06,0.274
437.08,0.266
436.09999999999997,0.263
435.12,0.258
434.14,0.253
433.15999999999997,0.249
432.18,0.246
431.2,0.244
430.21999999999997,0.241
429.24,0.238
428.26,0.235
427.28,0.232
426.3,0.228
425.32,0.219
424.34,0.213
423.36,0.211
422.38,0.203
421.4,0.196
420.42,0.189
419.44,0.184
418.46,0.181
417.48,0.175
416.5,0.177
415.52,0.175
414.54,0.169
413.56,0.163
412.58,0.158
411.59999999999997,0.155
410.62,0.154
409.64,0.152
408.65999999999997,0.154
407.68,0.147
406.7,0.143
405.71999999999997,0.141
404.74,0.140
403.76,0.139
402.78,0.138
401.8,0.139
400.82,0.137
399.84,0.134
398.86,0.135
397.88,0.133
396.9,0.132
395.92,0.131
394.94,0.129
393.96,0.133
392.98,0.133
392.0,0.130
391.02,0.128
390.04,0.126
389.06,0.122
388.08,0.124
387.09999999999997,0.121
386.12,0.119
385.14,0.123
384.15999999999997,0.119
383.18,0.116
382.2,0.114
381.21999999999997,0.115
380.24,0.109
