wavelength,amplitude
958.93,0.065
957.9499999999999,0.053
956.97,0.050
955.99,0.053
955.01,0.052
954.03,0.052
953.05,0.053
952.0699999999999,0.052
951.09,0.049
950.11,0.050
949.13,0.051
948.15,0.054
947.17,0.053
946.1899999999999,0.052
945.21,0.054
944.23,0.055
943.25,0.056
942.27,0.057
941.29,0.057
940.31,0.064
939.3299999999999,0.063
938.35,0.067
937.37,0.076
936.39,0.083
935.41,0.093
934.43,0.096
933.4499999999999,0.098
932.47,0.098
931.49,0.098
930.51,0.100
929.53,0.096
928.55,0.094
927.5699999999999,0.095
926.59,0.088
925.61,0.083
924.63,0.078
923.65,0.076
922.67,0.075
921.6899999999999,0.073
920.71,0.068
919.73,0.063
918.75,0.063
917.77,0.065
916.79,0.061
915.81,0.062
914.8299999999999,0.061
913.85,0.057
912.87,0.057
911.89,0.058
910.91,0.059
909.93,0.057
908.9499999999999,0.055
907.97,0.054
906.99,0.058
906.01,0.053
905.03,0.051
904.05,0.054
903.0699999999999,0.053
902.09,0.049
901.11,0.047
900.13,0.044
899.15,0.045
898.17,0.041
897.1899999999999,0.043
896.21,0.042
895.23,0.042
894.25,0.045
893.27,0.044
892.29,0.042
891.31,0.042
890.3299999999999,0.043
889.35,0.044
888.37,0.043
887.39,0.043
886.41,0.042
885.43,0.043
884.4499999999999,0.044
883.47,0.043
882.49,0.044
881.51,0.045
880.53,0.045
879.55,0.039
878.5699999999999,0.042
877.59,0.044
876.61,0.047
875.63,0.048
874.65,0.051
873.67,0.049
872.6899999999999,0.048
871.71,0.046
870.73,0.046
869.75,0.049
868.77,0.046
867.79,0.047
866.81,0.048
865.83,0.054
864.85,0.057
863.87,0.062
862.89,0.064
861.91,0.063
860.93,0.067
859.9499999999999,0.065
858.97,0.064
857.99,0.061
857.01,0.060
856.03,0.058
855.05,0.053
854.0699999999999,0.050
853.09,0.052
852.11,0.046
851.13,0.047
850.15,0.046
849.17,0.046
848.1899999999999,0.048
847.21,0.048
846.23,0.051
845.25,0.050
844.27,0.051
843.29,0.053
842.31,0.053
841.33,0.051
840.35,0.049
839.37,0.049
838.39,0.052
837.41,0.051
836.43,0.049
835.4499999999999,0.049
834.47,0.047
833.49,0.051
832.51,0.049
831.53,0.047
830.55,0.046
829.5699999999999,0.049
828.59,0.048
827.61,0.054
826.63,0.054
825.65,0.054
824.67,0.055
823.6899999999999,0.051
822.71,0.051
821.73,0.049
820.75,0.047
819.77,0.050
818.79,0.048
817.81,0.044
816.83,0.045
815.85,0.052
814.87,0.050
813.89,0.049
812.91,0.051
811.93,0.055
810.9499999999999,0.052
809.97,0.052
808.99,0.053
808.01,0.049
807.03,0.048
806.05,0.054
805.0699999999999,0.053
804.09,0.057
803.11,0.057
802.13,0.056
801.15,0.056
800.17,0.059
799.1899999999999,0.062
798.21,0.064
797.23,0.065
796.25,0.066
795.27,0.083
794.29,0.100
793.31,0.118
792.33,0.140
791.35,0.169
790.37,0.190
789.39,0.207
788.41,0.224
787.43,0.244
786.4499999999999,0.267
785.47,0.281
784.49,0.292
783.51,0.290
782.53,0.288
781.55,0.280
780.5699999999999,0.263
779.59,0.245
778.61,0.225
777.63,0.210
776.65,0.190
775.67,0.173
774.6899999999999,0.155
773.71,0.134
772.73,0.115
771.75,0.104
770.77,0.095
769.79,0.089
768.81,0.087
767.83,0.089
766.85,0.091
765.87,0.095
764.89,0.097
763.91,0.098
762.93,0.098
761.9499999999999,0.098
760.97,0.105
759.99,0.111
759.01,0.117
758.03,0.126
757.05,0.126
756.0699999999999,0.126
755.09,0.126
754.11,0.123
753.13,0.117
752.15,0.115
751.17,0.113
750.1899999999999,0.110
749.21,0.109
748.23,0.103
747.25,0.099
746.27,0.097
745.29,0.094
744.31,0.092
743.33,0.090
742.35,0.090
741.37,0.091
740.39,0.092
739.41,0.092
738.43,0.091
737.4499999999999,0.092
736.47,0.094
735.49,0.094
734.51,0.094
733.53,0.097
732.55,0.099
731.5699999999999,0.101
730.59,0.105
729.61,0.110
728.63,0.115
727.65,0.120
726.67,0.130
725.6899999999999,0.144
724.71,0.147
723.73,0.151
722.75,0.152
721.77,0.155
720.79,0.155
719.81,0.160
718.83,0.160
717.85,0.161
716.87,0.163
715.89,0.167
714.91,0.170
713.93,0.173
712.9499999999999,0.180
711.97,0.188
710.99,0.200
710.01,0.208
709.03,0.212
708.05,0.214
707.0699999999999,0.213
706.09,0.210
705.11,0.206
704.13,0.202
703.15,0.198
702.17,0.194
701.1899999999999,0.189
700.21,0.185
699.23,0.182
698.25,0.179
697.27,0.179
696.29,0.180
695.31,0.180
694.33,0.181
693.35,0.187
692.37,0.191
691.39,0.197
690.41,0.207
689.43,0.222
688.4499999999999,0.241
687.47,0.270
686.49,0.302
685.51,0.324
684.53,0.339
683.55,0.351
682.5699999999999,0.357
681.59,0.364
680.61,0.370
679.63,0.373
678.65,0.376
677.67,0.373
676.6899999999999,0.373
675.71,0.371
674.73,0.367
673.75,0.365
672.77,0.365
671.79,0.366
670.81,0.371
669.83,0.379
668.85,0.393
667.87,0.412
666.89,0.440
665.91,0.472
664.93,0.503
663.9499999999999,0.544
662.97,0.682
661.99,0.818
661.01,0.902
660.03,0.901
659.05,0.886
658.0699999999999,0.862
657.09,0.829
656.11,0.794
655.13,0.740
654.15,0.685
653.17,0.619
652.1899999999999,0.543
651.21,0.454
650.23,0.365
649.25,0.339
648.27,0.340
647.29,0.343
646.31,0.347
645.33,0.347
644.35,0.348
643.37,0.349
642.39,0.353
641.41,0.372
640.43,0.396
639.4499999999999,0.415
638.47,0.429
637.49,0.435
636.51,0.438
635.53,0.451
634.55,0.472
633.5699999999999,0.499
632.59,0.521
631.61,0.535
630.63,0.544
629.65,0.552
628.67,0.561
627.6899999999999,0.569
626.71,0.575
625.73,0.583
624.75,0.590
623.77,0.596
622.79,0.602
621.81,0.599
620.83,0.589
619.85,0.572
618.87,0.554
617.89,0.527
616.91,0.500
615.93,0.473
614.95,0.446
613.97,0.414
612.99,0.384
612.01,0.355
611.03,0.333
610.05,0.315
609.0699999999999,0.301
608.09,0.296
607.11,0.297
606.13,0.300
605.15,0.304
604.17,0.309
603.1899999999999,0.312
602.21,0.320
601.23,0.325
600.25,0.326
599.27,0.336
598.29,0.343
597.31,0.353
596.33,0.368
595.35,0.384
594.37,0.401
593.39,0.420
592.41,0.444
591.43,0.473
590.45,0.511
589.47,0.550
588.49,0.598
587.51,0.638
586.53,0.686
585.55,0.754
584.5699999999999,0.846
583.59,0.910
582.61,0.950
581.63,0.979
580.65,0.996
579.67,1.000
578.6899999999999,0.987
577.71,0.962
576.73,0.930
575.75,0.887
574.77,0.836
573.79,0.783
572.81,0.726
571.83,0.673
570.85,0.629
569.87,0.590
568.89,0.564
567.91,0.545
566.93,0.530
565.95,0.523
564.97,0.513
563.99,0.504
563.01,0.497
562.03,0.488
561.05,0.483
560.0699999999999,0.480
559.09,0.480
558.11,0.478
557.13,0.477
556.15,0.478
555.17,0.482
554.1899999999999,0.490
553.21,0.499
552.23,0.504
551.25,0.511
550.27,0.520
549.29,0.531
548.31,0.540
547.33,0.550
546.35,0.557
545.37,0.564
544.39,0.572
543.41,0.580
542.43,0.586
541.45,0.591
540.47,0.594
539.49,0.598
538.51,0.601
537.53,0.606
536.55,0.612
535.5699999999999,0.621
534.59,0.628
533.61,0.633
532.63,0.642
531.65,0.650
530.67,0.659
529.6899999999999,0.667
528.71,0.672
527.73,0.682
526.75,0.689
525.77,0.697
524.79,0.705
523.81,0.710
522.83,0.718
521.85,0.724
520.87,0.729
519.89,0.732
518.91,0.730
517.93,0.727
516.95,0.722
515.97,0.714
514.99,0.704
514.01,0.692
513.03,0.681
512.05,0.669
511.07,0.656
510.09,0.640
509.11,0.625
508.13,0.609
507.15,0.592
506.17,0.574
505.19,0.557
504.21,0.538
503.23,0.516
502.25,0.491
501.27,0.464
500.28999999999996,0.434
499.31,0.406
498.33,0.378
497.34999999999997,0.354
496.37,0.333
495.39,0.310
494.40999999999997,0.292
493.43,0.278
492.45,0.266
491.46999999999997,0.264
490.49,0.263
489.51,0.260
488.53,0.261
487.55,0.261
486.57,0.263
485.59,0.262
484.61,0.263
483.63,0.263
482.65,0.262
481.67,0.261
480.69,0.260
479.71,0.260
478.73,0.258
477.75,0.258
476.77,0.258
475.78999999999996,0.258
474.81,0.256
473.83,0.255
472.84999999999997,0.255
471.87,0.254
470.89,0.253
469.90999999999997,0.253
468.93,0.255
467.95,0.261
466.96999999999997,0.267
465.99,0.274
465.01,0.280
464.03,0.282
463.05,0.280
462.07,0.277
461.09,0.274
460.11,0.268
459.13,0.262
458.15,0.252
457.17,0.240
456.19,0.227
455.21,0.210
454.23,0.199
453.25,0.193
452.27,0.188
451.28999999999996,0.186
450.31,0.182
449.33,0.178
448.34999999999997,0.172
447.37,0.167
446.39,0.162
445.40999999999997,0.158
444.43,0.153
443.45,0.151
442.46999999999997,0.147
441.49,0.144
440.51,0.140
439.53,0.137
438.55,0.136
437.57,0.137
436.59,0.138
435.61,0.143
434.63,0.152
433.65,0.165
432.67,0.177
431.69,0.184
430.71,0.184
429.73,0.182
428.75,0.176
427.77,0.169
426.79,0.158
425.81,0.149
424.83,0.136
423.84999999999997,0.121
422.87,0.105
421.89,0.092
420.90999999999997,0.082
419.93,0.076
418.95,0.073
417.96999999999997,0.072
416.99,0.069
416.01,0.068
415.03,0.068
414.05,0.067
413.07,0.064
412.09,0.066
411.11,0.067
410.13,0.066
409.15,0.066
408.17,0.064
407.19,0.065
406.21,0.068
405.23,0.070
404.25,0.070
403.27,0.070
402.29,0.070
401.31,0.071
400.33,0.073
399.34999999999997,0.073
398.37,0.073
397.39,0.074
396.40999999999997,0.075
395.43,0.076
394.45,0.077
393.46999999999997,0.078
392.49,0.079
391.51,0.079
390.53,0.081
389.55,0.080
388.57,0.079
387.59,0.077
386.61,0.075
385.63,0.075
384.65,0.076
383.67,0.077
382.69,0.076
381.71,0.074
380.73,0.074
