wavelength,amplitude
999.11,0.014
998.13,0.014
997.15,0.015
996.17,0.014
995.1899999999999,0.014
994.21,0.014
993.23,0.014
992.25,0.014
991.27,0.014
990.29,0.014
989.31,0.015
988.3299999999999,0.014
987.35,0.014
986.37,0.014
985.39,0.014
984.41,0.014
983.43,0.015
982.4499999999999,0.014
981.47,0.015
980.49,0.015
979.51,0.015
978.53,0.014
977.55,0.014
976.5699999999999,0.014
975.59,0.014
974.61,0.014
973.63,0.014
972.65,0.014
971.67,0.014
970.6899999999999,0.014
969.71,0.014
968.73,0.014
967.75,0.014
966.77,0.014
965.79,0.014
964.81,0.014
963.8299999999999,0.014
962.85,0.014
961.87,0.014
960.89,0.014
959.91,0.014
958.93,0.014
957.9499999999999,0.014
956.97,0.014
955.99,0.014
955.01,0.014
954.03,0.014
953.05,0.014
952.0699999999999,0.014
951.09,0.014
950.11,0.015
949.13,0.015
948.15,0.015
947.17,0.015
946.1899999999999,0.014
945.21,0.014
944.23,0.015
943.25,0.014
942.27,0.014
941.29,0.014
940.31,0.015
939.3299999999999,0.014
938.35,0.014
937.37,0.014
936.39,0.014
935.41,0.014
934.43,0.014
933.4499999999999,0.014
932.47,0.014
931.49,0.014
930.51,0.014
929.53,0.014
928.55,0.014
927.5699999999999,0.014
926.59,0.014
925.61,0.014
924.63,0.014
923.65,0.014
922.67,0.014
921.6899999999999,0.014
920.71,0.015
919.73,0.014
918.75,0.014
917.77,0.014
916.79,0.014
915.81,0.014
914.8299999999999,0.014
913.85,0.014
912.87,0.014
911.89,0.015
910.91,0.014
909.93,0.014
908.9499999999999,0.015
907.97,0.014
906.99,0.014
906.01,0.014
905.03,0.014
904.05,0.016
903.0699999999999,0.015
902.09,0.015
901.11,0.014
900.13,0.014
899.15,0.014
898.17,0.014
897.1899999999999,0.014
896.21,0.015
895.23,0.014
894.25,0.014
893.27,0.014
892.29,0.014
891.31,0.014
890.3299999999999,0.014
889.35,0.015
888.37,0.014
887.39,0.014
886.41,0.014
885.43,0.014
884.4499999999999,0.014
883.47,0.014
882.49,0.014
881.51,0.014
880.53,0.014
879.55,0.014
878.5699999999999,0.014
877.59,0.014
876.61,0.014
875.63,0.014
874.65,0.014
873.67,0.014
872.6899999999999,0.014
871.71,0.014
870.73,0.014
869.75,0.014
868.77,0.014
867.79,0.014
866.81,0.014
865.83,0.014
864.85,0.014
863.87,0.014
862.89,0.014
861.91,0.015
860.93,0.015
859.9499999999999,0.015
858.97,0.014
857.99,0.014
857.01,0.014
856.03,0.014
855.05,0.015
854.0699999999999,0.015
853.09,0.015
852.11,0.014
851.13,0.014
850.15,0.014
849.17,0.014
848.1899999999999,0.014
847.21,0.014
846.23,0.015
845.25,0.015
844.27,0.014
843.29,0.014
842.31,0.014
841.33,0.015
840.35,0.014
839.37,0.014
838.39,0.014
837.41,0.016
836.43,0.014
835.4499999999999,0.015
834.47,0.014
833.49,0.014
832.51,0.014
831.53,0.014
830.55,0.014
829.5699999999999,0.015
828.59,0.015
827.61,0.015
826.63,0.014
825.65,0.015
824.67,0.015
823.6899999999999,0.014
822.71,0.015
821.73,0.015
820.75,0.014
819.77,0.015
818.79,0.014
817.81,0.015
816.83,0.015
815.85,0.015
814.87,0.015
813.89,0.015
812.91,0.014
811.93,0.016
810.9499999999999,0.016
809.97,0.015
808.99,0.015
808.01,0.015
807.03,0.014
806.05,0.014
805.0699999999999,0.014
804.09,0.015
803.11,0.014
802.13,0.014
801.15,0.014
800.17,0.015
799.1899999999999,0.014
798.21,0.015
797.23,0.015
796.25,0.015
795.27,0.014
794.29,0.015
793.31,0.015
792.33,0.015
791.35,0.015
790.37,0.015
789.39,0.014
788.41,0.014
787.43,0.014
786.4499999999999,0.014
785.47,0.015
784.49,0.016
783.51,0.017
782.53,0.016
781.55,0.016
780.5699999999999,0.015
779.59,0.015
778.61,0.015
777.63,0.016
776.65,0.018
775.67,0.019
774.6899999999999,0.018
773.71,0.018
772.73,0.020
771.75,0.020
770.77,0.019
769.79,0.018
768.81,0.020
767.83,0.024
766.85,0.031
765.87,0.046
764.89,0.071
763.91,0.100
762.93,0.134
761.9499999999999,0.162
760.97,0.198
759.99,0.229
759.01,0.268
758.03,0.300
757.05,0.338
756.0699999999999,0.364
755.09,0.391
754.11,0.410
753.13,0.424
752.15,0.433
751.17,0.439
750.1899999999999,0.442
749.21,0.438
748.23,0.419
747.25,0.408
746.27,0.384
745.29,0.357
744.31,0.323
743.33,0.286
742.35,0.238
741.37,0.197
740.39,0.155
739.41,0.121
738.43,0.095
737.4499999999999,0.076
736.47,0.063
735.49,0.054
734.51,0.052
733.53,0.051
732.55,0.052
731.5699999999999,0.056
730.59,0.060
729.61,0.062
728.63,0.062
727.65,0.063
726.67,0.066
725.6899999999999,0.076
724.71,0.101
723.73,0.143
722.75,0.202
721.77,0.268
720.79,0.337
719.81,0.409
718.83,0.486
717.85,0.565
716.87,0.654
715.89,0.742
714.91,0.824
713.93,0.883
712.9499999999999,0.927
711.97,0.961
710.99,0.989
710.01,1.000
709.03,0.992
708.05,0.976
707.0699999999999,0.948
706.09,0.915
705.11,0.871
704.13,0.802
703.15,0.721
702.17,0.640
701.1899999999999,0.550
700.21,0.469
699.23,0.384
698.25,0.300
697.27,0.218
696.29,0.153
695.31,0.103
694.33,0.069
693.35,0.049
692.37,0.036
691.39,0.028
690.41,0.026
689.43,0.024
688.4499999999999,0.022
687.47,0.022
686.49,0.021
685.51,0.020
684.53,0.019
683.55,0.018
682.5699999999999,0.021
681.59,0.020
680.61,0.019
679.63,0.018
678.65,0.018
677.67,0.016
676.6899999999999,0.016
675.71,0.016
674.73,0.017
673.75,0.017
672.77,0.018
671.79,0.017
670.81,0.019
669.83,0.016
668.85,0.017
667.87,0.016
666.89,0.017
665.91,0.018
664.93,0.019
663.9499999999999,0.018
662.97,0.019
661.99,0.019
661.01,0.019
660.03,0.019
659.05,0.019
658.0699999999999,0.019
657.09,0.019
656.11,0.020
655.13,0.020
654.15,0.021
653.17,0.021
652.1899999999999,0.021
651.21,0.022
650.23,0.024
649.25,0.024
648.27,0.024
647.29,0.024
646.31,0.024
645.33,0.025
644.35,0.025
643.37,0.025
642.39,0.026
641.41,0.027
640.43,0.028
639.4499999999999,0.028
638.47,0.029
637.49,0.029
636.51,0.029
635.53,0.028
634.55,0.028
633.5699999999999,0.027
632.59,0.028
631.61,0.027
630.63,0.025
629.65,0.024
628.67,0.024
627.6899999999999,0.023
626.71,0.024
625.73,0.023
624.75,0.025
623.77,0.025
622.79,0.024
621.81,0.024
620.83,0.024
619.85,0.024
618.87,0.025
617.89,0.026
616.91,0.026
615.93,0.027
614.95,0.025
613.97,0.024
612.99,0.025
612.01,0.024
611.03,0.024
610.05,0.025
609.0699999999999,0.026
608.09,0.028
607.11,0.027
606.13,0.028
605.15,0.027
604.17,0.028
603.1899999999999,0.028
602.21,0.029
601.23,0.030
600.25,0.034
599.27,0.035
598.29,0.039
597.31,0.044
596.33,0.050
595.35,0.057
594.37,0.065
593.39,0.071
592.41,0.076
591.43,0.079
590.45,0.082
589.47,0.084
588.49,0.087
587.51,0.091
586.53,0.098
585.55,0.104
584.5699999999999,0.119
583.59,0.138
582.61,0.165
581.63,0.193
580.65,0.223
579.67,0.255
578.6899999999999,0.295
577.71,0.336
576.73,0.384
575.75,0.429
574.77,0.472
573.79,0.503
572.81,0.526
571.83,0.542
570.85,0.560
569.87,0.560
568.89,0.544
567.91,0.519
566.93,0.492
565.95,0.459
564.97,0.418
563.99,0.369
563.01,0.326
562.03,0.284
561.05,0.244
560.0699999999999,0.203
559.09,0.168
558.11,0.136
557.13,0.111
556.15,0.093
555.17,0.081
554.1899999999999,0.075
553.21,0.071
552.23,0.070
551.25,0.068
550.27,0.068
549.29,0.069
548.31,0.071
547.33,0.073
546.35,0.079
545.37,0.088
544.39,0.098
543.41,0.113
542.43,0.131
541.45,0.151
540.47,0.172
539.49,0.193
538.51,0.220
537.53,0.244
536.55,0.267
535.5699999999999,0.289
534.59,0.307
533.61,0.319
532.63,0.326
531.65,0.323
530.67,0.313
529.6899999999999,0.298
528.71,0.279
527.73,0.259
526.75,0.235
525.77,0.209
524.79,0.182
523.81,0.153
522.83,0.124
521.85,0.098
520.87,0.071
519.89,0.052
518.91,0.037
517.93,0.027
516.95,0.020
515.97,0.017
514.99,0.015
514.01,0.015
513.03,0.014
512.05,0.014
511.07,0.013
510.09,0.015
509.11,0.012
508.13,0.014
507.15,0.012
506.17,0.012
505.19,0.011
504.21,0.011
503.23,0.011
502.25,0.011
501.27,0.011
500.28999999999996,0.012
499.31,0.010
498.33,0.010
497.34999999999997,0.010
496.37,0.010
495.39,0.009
494.40999999999997,0.010
493.43,0.009
492.45,0.008
491.46999999999997,0.007
490.49,0.008
489.51,0.007
488.53,0.007
487.55,0.007
486.57,0.007
485.59,0.007
484.61,0.007
483.63,0.008
482.65,0.008
481.67,0.007
480.69,0.008
479.71,0.008
478.73,0.008
477.75,0.008
476.77,0.008
475.78999999999996,0.008
474.81,0.008
473.83,0.008
472.84999999999997,0.008
471.87,0.008
470.89,0.007
469.90999999999997,0.008
468.93,0.008
467.95,0.008
466.96999999999997,0.009
465.99,0.009
465.01,0.008
464.03,0.008
463.05,0.007
462.07,0.007
461.09,0.007
460.11,0.007
459.13,0.007
458.15,0.007
457.17,0.007
456.19,0.007
455.21,0.008
454.23,0.008
453.25,0.008
452.27,0.007
451.28999999999996,0.008
450.31,0.008
449.33,0.008
448.34999999999997,0.008
447.37,0.008
446.39,0.007
445.40999999999997,0.008
444.43,0.008
443.45,0.008
442.46999999999997,0.007
441.49,0.007
440.51,0.007
439.53,0.008
438.55,0.007
437.57,0.008
436.59,0.009
435.61,0.008
434.63,0.007
433.65,0.008
432.67,0.008
431.69,0.008
430.71,0.008
429.73,0.008
428.75,0.008
427.77,0.008
426.79,0.007
425.81,0.008
424.83,0.007
423.84999999999997,0.008
422.87,0.008
421.89,0.008
420.90999999999997,0.007
419.93,0.007
418.95,0.007
417.96999999999997,0.008
416.99,0.007
416.01,0.009
415.03,0.008
414.05,0.008
413.07,0.008
412.09,0.008
411.11,0.007
410.13,0.009
409.15,0.007
408.17,0.007
407.19,0.007
406.21,0.008
405.23,0.007
404.25,0.008
403.27,0.007
402.29,0.008
401.31,0.007
400.33,0.007
399.34999999999997,0.007
398.37,0.007
397.39,0.007
396.40999999999997,0.007
395.43,0.008
394.45,0.008
393.46999999999997,0.008
392.49,0.007
391.51,0.007
390.53,0.007
389.55,0.007
388.57,0.007
387.59,0.007
386.61,0.007
385.63,0.008
384.65,0.008
383.67,0.008
382.69,0.008
381.71,0.008
380.73,0.008
