wavelength,amplitude
999.11,0.012
998.13,0.012
997.15,0.012
996.17,0.012
995.1899999999999,0.012
994.21,0.012
993.23,0.012
992.25,0.012
991.27,0.012
990.29,0.012
989.31,0.013
988.3299999999999,0.013
987.35,0.012
986.37,0.012
985.39,0.012
984.41,0.012
983.43,0.012
982.4499999999999,0.012
981.47,0.012
980.49,0.012
979.51,0.012
978.53,0.012
977.55,0.012
976.5699999999999,0.012
975.59,0.012
974.61,0.012
973.63,0.012
972.65,0.012
971.67,0.011
970.6899999999999,0.012
969.71,0.013
968.73,0.013
967.75,0.012
966.77,0.012
965.79,0.012
964.81,0.012
963.8299999999999,0.012
962.85,0.012
961.87,0.012
960.89,0.012
959.91,0.012
958.93,0.012
957.9499999999999,0.012
956.97,0.012
955.99,0.012
955.01,0.012
954.03,0.013
953.05,0.012
952.0699999999999,0.012
951.09,0.012
950.11,0.012
949.13,0.012
948.15,0.012
947.17,0.012
946.1899999999999,0.012
945.21,0.012
944.23,0.013
943.25,0.013
942.27,0.012
941.29,0.012
940.31,0.012
939.3299999999999,0.012
938.35,0.012
937.37,0.012
936.39,0.012
935.41,0.012
934.43,0.013
933.4499999999999,0.013
932.47,0.013
931.49,0.012
930.51,0.012
929.53,0.012
928.55,0.012
927.5699999999999,0.012
926.59,0.012
925.61,0.012
924.63,0.012
923.65,0.012
922.67,0.012
921.6899999999999,0.012
920.71,0.012
919.73,0.012
918.75,0.012
917.77,0.012
916.79,0.012
915.81,0.012
914.8299999999999,0.012
913.85,0.012
912.87,0.012
911.89,0.012
910.91,0.012
909.93,0.012
908.9499999999999,0.012
907.97,0.012
906.99,0.012
906.01,0.012
905.03,0.013
904.05,0.012
903.0699999999999,0.013
902.09,0.013
901.11,0.012
900.13,0.012
899.15,0.013
898.17,0.013
897.1899999999999,0.012
896.21,0.012
895.23,0.012
894.25,0.012
893.27,0.012
892.29,0.012
891.31,0.012
890.3299999999999,0.012
889.35,0.012
888.37,0.012
887.39,0.012
886.41,0.013
885.43,0.013
884.4499999999999,0.012
883.47,0.012
882.49,0.012
881.51,0.012
880.53,0.013
879.55,0.013
878.5699999999999,0.013
877.59,0.012
876.61,0.012
875.63,0.012
874.65,0.012
873.67,0.012
872.6899999999999,0.012
871.71,0.012
870.73,0.012
869.75,0.012
868.77,0.012
867.79,0.012
866.81,0.012
865.83,0.012
864.85,0.013
863.87,0.013
862.89,0.012
861.91,0.012
860.93,0.012
859.9499999999999,0.012
858.97,0.012
857.99,0.012
857.01,0.012
856.03,0.012
855.05,0.012
854.0699999999999,0.012
853.09,0.012
852.11,0.012
851.13,0.012
850.15,0.012
849.17,0.012
848.1899999999999,0.013
847.21,0.015
846.23,0.014
845.25,0.012
844.27,0.013
843.29,0.012
842.31,0.012
841.33,0.012
840.35,0.012
839.37,0.012
838.39,0.013
837.41,0.013
836.43,0.013
835.4499999999999,0.013
834.47,0.013
833.49,0.013
832.51,0.013
831.53,0.013
830.55,0.013
829.5699999999999,0.012
828.59,0.012
827.61,0.012
826.63,0.012
825.65,0.013
824.67,0.013
823.6899999999999,0.013
822.71,0.013
821.73,0.013
820.75,0.012
819.77,0.012
818.79,0.013
817.81,0.013
816.83,0.014
815.85,0.013
814.87,0.013
813.89,0.012
812.91,0.013
811.93,0.013
810.9499999999999,0.013
809.97,0.013
808.99,0.012
808.01,0.012
807.03,0.012
806.05,0.012
805.0699999999999,0.012
804.09,0.012
803.11,0.012
802.13,0.012
801.15,0.013
800.17,0.012
799.1899999999999,0.012
798.21,0.012
797.23,0.013
796.25,0.012
795.27,0.013
794.29,0.012
793.31,0.013
792.33,0.012
791.35,0.012
790.37,0.012
789.39,0.012
788.41,0.012
787.43,0.012
786.4499999999999,0.012
785.47,0.012
784.49,0.012
783.51,0.012
782.53,0.013
781.55,0.012
780.5699999999999,0.012
779.59,0.012
778.61,0.012
777.63,0.012
776.65,0.011
775.67,0.012
774.6899999999999,0.013
773.71,0.012
772.73,0.013
771.75,0.013
770.77,0.013
769.79,0.012
768.81,0.012
767.83,0.012
766.85,0.012
765.87,0.011
764.89,0.012
763.91,0.012
762.93,0.012
761.9499999999999,0.012
760.97,0.012
759.99,0.013
759.01,0.014
758.03,0.013
757.05,0.013
756.0699999999999,0.012
755.09,0.013
754.11,0.014
753.13,0.014
752.15,0.015
751.17,0.016
750.1899999999999,0.014
749.21,0.015
748.23,0.017
747.25,0.017
746.27,0.016
745.29,0.015
744.31,0.016
743.33,0.017
742.35,0.018
741.37,0.018
740.39,0.020
739.41,0.023
738.43,0.028
737.4499999999999,0.035
736.47,0.054
735.49,0.075
734.51,0.097
733.53,0.126
732.55,0.163
731.5699999999999,0.196
730.59,0.235
729.61,0.271
728.63,0.309
727.65,0.339
726.67,0.374
725.6899999999999,0.398
724.71,0.421
723.73,0.443
722.75,0.461
721.77,0.475
720.79,0.478
719.81,0.472
718.83,0.454
717.85,0.424
716.87,0.386
715.89,0.346
714.91,0.308
713.93,0.263
712.9499999999999,0.222
711.97,0.177
710.99,0.141
710.01,0.110
709.03,0.083
708.05,0.067
707.0699999999999,0.060
706.09,0.060
705.11,0.061
704.13,0.061
703.15,0.063
702.17,0.061
701.1899999999999,0.059
700.21,0.060
699.23,0.063
698.25,0.069
697.27,0.079
696.29,0.095
695.31,0.118
694.33,0.153
693.35,0.194
692.37,0.250
691.39,0.308
690.41,0.372
689.43,0.438
688.4499999999999,0.512
687.47,0.586
686.49,0.660
685.51,0.731
684.53,0.797
683.55,0.852
682.5699999999999,0.914
681.59,0.971
680.61,1.000
679.63,0.997
678.65,0.966
677.67,0.919
676.6899999999999,0.864
675.71,0.803
674.73,0.731
673.75,0.652
672.77,0.565
671.79,0.483
670.81,0.397
669.83,0.312
668.85,0.229
667.87,0.166
666.89,0.114
665.91,0.080
664.93,0.057
663.9499999999999,0.043
662.97,0.035
661.99,0.032
661.01,0.027
660.03,0.023
659.05,0.022
658.0699999999999,0.024
657.09,0.022
656.11,0.019
655.13,0.020
654.15,0.020
653.17,0.018
652.1899999999999,0.018
651.21,0.018
650.23,0.018
649.25,0.017
648.27,0.018
647.29,0.017
646.31,0.018
645.33,0.016
644.35,0.016
643.37,0.015
642.39,0.016
641.41,0.014
640.43,0.016
639.4499999999999,0.015
638.47,0.016
637.49,0.015
636.51,0.014
635.53,0.015
634.55,0.015
633.5699999999999,0.014
632.59,0.014
631.61,0.015
630.63,0.015
629.65,0.016
628.67,0.016
627.6899999999999,0.017
626.71,0.018
625.73,0.018
624.75,0.018
623.77,0.018
622.79,0.018
621.81,0.019
620.83,0.020
619.85,0.020
618.87,0.022
617.89,0.022
616.91,0.024
615.93,0.025
614.95,0.025
613.97,0.027
612.99,0.027
612.01,0.026
611.03,0.027
610.05,0.028
609.0699999999999,0.028
608.09,0.029
607.11,0.028
606.13,0.027
605.15,0.026
604.17,0.026
603.1899999999999,0.025
602.21,0.025
601.23,0.024
600.25,0.024
599.27,0.023
598.29,0.022
597.31,0.022
596.33,0.022
595.35,0.023
594.37,0.025
593.39,0.024
592.41,0.025
591.43,0.024
590.45,0.024
589.47,0.023
588.49,0.025
587.51,0.025
586.53,0.024
585.55,0.025
584.5699999999999,0.026
583.59,0.026
582.61,0.026
581.63,0.027
580.65,0.028
579.67,0.028
578.6899999999999,0.029
577.71,0.029
576.73,0.029
575.75,0.031
574.77,0.032
573.79,0.033
572.81,0.034
571.83,0.038
570.85,0.040
569.87,0.045
568.89,0.051
567.91,0.056
566.93,0.065
565.95,0.070
564.97,0.075
563.99,0.080
563.01,0.084
562.03,0.088
561.05,0.092
560.0699999999999,0.096
559.09,0.102
558.11,0.110
557.13,0.118
556.15,0.129
555.17,0.141
554.1899999999999,0.156
553.21,0.168
552.23,0.190
551.25,0.221
550.27,0.258
549.29,0.297
548.31,0.338
547.33,0.377
546.35,0.424
545.37,0.468
544.39,0.493
543.41,0.505
542.43,0.517
541.45,0.525
540.47,0.522
539.49,0.498
538.51,0.463
537.53,0.422
536.55,0.381
535.5699999999999,0.337
534.59,0.290
533.61,0.235
532.63,0.191
531.65,0.159
530.67,0.134
529.6899999999999,0.112
528.71,0.096
527.73,0.086
526.75,0.079
525.77,0.075
524.79,0.072
523.81,0.071
522.83,0.070
521.85,0.071
520.87,0.071
519.89,0.072
518.91,0.075
517.93,0.079
516.95,0.085
515.97,0.092
514.99,0.104
514.01,0.119
513.03,0.134
512.05,0.152
511.07,0.171
510.09,0.192
509.11,0.214
508.13,0.237
507.15,0.260
506.17,0.279
505.19,0.293
504.21,0.301
503.23,0.297
502.25,0.285
501.27,0.266
500.28999999999996,0.246
499.31,0.223
498.33,0.197
497.34999999999997,0.169
496.37,0.142
495.39,0.115
494.40999999999997,0.088
493.43,0.064
492.45,0.044
491.46999999999997,0.030
490.49,0.020
489.51,0.016
488.53,0.013
487.55,0.012
486.57,0.012
485.59,0.011
484.61,0.010
483.63,0.010
482.65,0.010
481.67,0.009
480.69,0.008
479.71,0.008
478.73,0.008
477.75,0.008
476.77,0.008
475.78999999999996,0.008
474.81,0.007
473.83,0.007
472.84999999999997,0.007
471.87,0.007
470.89,0.006
469.90999999999997,0.006
468.93,0.006
467.95,0.006
466.96999999999997,0.006
465.99,0.005
465.01,0.005
464.03,0.005
463.05,0.005
462.07,0.005
461.09,0.005
460.11,0.005
459.13,0.006
458.15,0.006
457.17,0.006
456.19,0.005
455.21,0.005
454.23,0.005
453.25,0.005
452.27,0.006
451.28999999999996,0.006
450.31,0.005
449.33,0.006
448.34999999999997,0.006
447.37,0.005
446.39,0.005
445.40999999999997,0.006
444.43,0.006
443.45,0.006
442.46999999999997,0.006
441.49,0.006
440.51,0.005
439.53,0.006
438.55,0.005
437.57,0.005
436.59,0.005
435.61,0.005
434.63,0.005
433.65,0.005
432.67,0.005
431.69,0.006
430.71,0.005
429.73,0.006
428.75,0.006
427.77,0.005
426.79,0.006
425.81,0.006
424.83,0.006
423.84999999999997,0.006
422.87,0.006
421.89,0.006
420.90999999999997,0.006
419.93,0.005
418.95,0.006
417.96999999999997,0.005
416.99,0.005
416.01,0.005
415.03,0.006
414.05,0.005
413.07,0.006
412.09,0.005
411.11,0.006
410.13,0.006
409.15,0.006
408.17,0.006
407.19,0.006
406.21,0.006
405.23,0.006
404.25,0.006
403.27,0.006
402.29,0.005
401.31,0.005
400.33,0.005
399.34999999999997,0.005
398.37,0.005
397.39,0.006
396.40999999999997,0.005
395.43,0.005
394.45,0.005
393.46999999999997,0.005
392.49,0.005
391.51,0.006
390.53,0.006
389.55,0.006
388.57,0.006
387.59,0.006
386.61,0.005
385.63,0.006
384.65,0.005
383.67,0.005
382.69,0.005
381.71,0.005
380.73,0.005
