wavelength,amplitude
954.52,0.463
953.54,0.465
952.56,0.470
951.5799999999999,0.476
950.6,0.479
949.62,0.485
948.64,0.491
947.66,0.492
946.68,0.494
945.6999999999999,0.496
944.72,0.505
943.74,0.505
942.76,0.508
941.78,0.514
940.8,0.515
939.8199999999999,0.516
938.84,0.521
937.86,0.524
936.88,0.527
935.9,0.533
934.92,0.533
933.9399999999999,0.535
932.96,0.542
931.98,0.546
931.0,0.545
930.02,0.544
929.04,0.546
928.06,0.550
927.0799999999999,0.553
926.1,0.555
925.12,0.557
924.14,0.557
923.16,0.558
922.18,0.556
921.1999999999999,0.562
920.22,0.568
919.24,0.573
918.26,0.573
917.28,0.565
916.3,0.565
915.3199999999999,0.565
914.34,0.564
913.36,0.564
912.38,0.563
911.4,0.560
910.42,0.560
909.4399999999999,0.563
908.46,0.565
907.48,0.568
906.5,0.565
905.52,0.565
904.54,0.565
903.56,0.563
902.5799999999999,0.562
901.6,0.564
900.62,0.566
899.64,0.569
898.66,0.570
897.68,0.570
896.6999999999999,0.570
895.72,0.572
894.74,0.572
893.76,0.572
892.78,0.576
891.8,0.578
890.8199999999999,0.579
889.84,0.584
888.86,0.585
887.88,0.585
886.9,0.587
885.92,0.587
884.9399999999999,0.588
883.96,0.587
882.98,0.589
882.0,0.590
881.02,0.587
880.04,0.589
879.06,0.587
878.0799999999999,0.589
877.1,0.590
876.12,0.589
875.14,0.591
874.16,0.589
873.18,0.587
872.1999999999999,0.588
871.22,0.591
870.24,0.593
869.26,0.594
868.28,0.593
867.3,0.590
866.3199999999999,0.588
865.34,0.587
864.36,0.591
863.38,0.594
862.4,0.596
861.42,0.593
860.4399999999999,0.590
859.46,0.586
858.48,0.584
857.5,0.585
856.52,0.587
855.54,0.588
854.56,0.587
853.58,0.586
852.6,0.586
851.62,0.585
850.64,0.585
849.66,0.583
848.68,0.581
847.6999999999999,0.584
846.72,0.588
845.74,0.587
844.76,0.590
843.78,0.595
842.8,0.598
841.8199999999999,0.598
840.84,0.598
839.86,0.597
838.88,0.597
837.9,0.598
836.92,0.600
835.9399999999999,0.602
834.96,0.601
833.98,0.601
833.0,0.604
832.02,0.606
831.04,0.608
830.06,0.607
829.08,0.602
828.1,0.604
827.12,0.605
826.14,0.603
825.16,0.605
824.18,0.610
823.1999999999999,0.610
822.22,0.611
821.24,0.612
820.26,0.611
819.28,0.614
818.3,0.615
817.3199999999999,0.617
816.34,0.618
815.36,0.619
814.38,0.620
813.4,0.623
812.42,0.625
811.4399999999999,0.625
810.46,0.626
809.48,0.624
808.5,0.620
807.52,0.618
806.54,0.619
805.56,0.618
804.58,0.615
803.6,0.615
802.62,0.614
801.64,0.615
800.66,0.613
799.68,0.614
798.6999999999999,0.615
797.72,0.614
796.74,0.613
795.76,0.613
794.78,0.611
793.8,0.612
792.8199999999999,0.612
791.84,0.612
790.86,0.614
789.88,0.614
788.9,0.612
787.92,0.611
786.9399999999999,0.612
785.96,0.611
784.98,0.609
784.0,0.610
783.02,0.607
782.04,0.602
781.06,0.599
780.08,0.603
779.1,0.603
778.12,0.601
777.14,0.603
776.16,0.598
775.18,0.595
774.1999999999999,0.594
773.22,0.594
772.24,0.594
771.26,0.592
770.28,0.589
769.3,0.587
768.3199999999999,0.592
767.34,0.587
766.36,0.585
765.38,0.584
764.4,0.585
763.42,0.586
762.4399999999999,0.587
761.46,0.587
760.48,0.586
759.5,0.581
758.52,0.579
757.54,0.573
756.56,0.567
755.58,0.565
754.6,0.565
753.62,0.554
752.64,0.547
751.66,0.540
750.68,0.535
749.6999999999999,0.530
748.72,0.521
747.74,0.514
746.76,0.509
745.78,0.502
744.8,0.494
743.8199999999999,0.492
742.84,0.489
741.86,0.487
740.88,0.487
739.9,0.481
738.92,0.478
737.9399999999999,0.475
736.96,0.473
735.98,0.467
735.0,0.465
734.02,0.457
733.04,0.453
732.06,0.450
731.08,0.449
730.1,0.442
729.12,0.436
728.14,0.431
727.16,0.428
726.18,0.424
725.1999999999999,0.426
724.22,0.425
723.24,0.424
722.26,0.423
721.28,0.425
720.3,0.422
719.3199999999999,0.424
718.34,0.427
717.36,0.433
716.38,0.431
715.4,0.436
714.42,0.441
713.4399999999999,0.448
712.46,0.454
711.48,0.462
710.5,0.469
709.52,0.476
708.54,0.483
707.56,0.492
706.58,0.499
705.6,0.508
704.62,0.518
703.64,0.526
702.66,0.534
701.68,0.541
700.6999999999999,0.550
699.72,0.558
698.74,0.566
697.76,0.576
696.78,0.587
695.8,0.596
694.8199999999999,0.605
693.84,0.613
692.86,0.618
691.88,0.629
690.9,0.638
689.92,0.647
688.9399999999999,0.654
687.96,0.659
686.98,0.664
686.0,0.671
685.02,0.678
684.04,0.682
683.06,0.689
682.08,0.695
681.1,0.701
680.12,0.710
679.14,0.718
678.16,0.723
677.18,0.728
676.1999999999999,0.733
675.22,0.742
674.24,0.745
673.26,0.752
672.28,0.758
671.3,0.762
670.3199999999999,0.766
669.34,0.773
668.36,0.777
667.38,0.780
666.4,0.784
665.42,0.788
664.4399999999999,0.787
663.46,0.789
662.48,0.792
661.5,0.795
660.52,0.797
659.54,0.799
658.56,0.802
657.58,0.802
656.6,0.802
655.62,0.803
654.64,0.807
653.66,0.809
652.68,0.811
651.6999999999999,0.817
650.72,0.819
649.74,0.822
648.76,0.825
647.78,0.828
646.8,0.833
645.8199999999999,0.836
644.84,0.840
643.86,0.842
642.88,0.845
641.9,0.849
640.92,0.852
639.9399999999999,0.855
638.96,0.859
637.98,0.863
637.0,0.865
636.02,0.865
635.04,0.866
634.06,0.869
633.08,0.872
632.1,0.872
631.12,0.872
630.14,0.873
629.16,0.875
628.18,0.878
627.2,0.879
626.22,0.881
625.24,0.882
624.26,0.883
623.28,0.887
622.3,0.887
621.3199999999999,0.888
620.34,0.890
619.36,0.894
618.38,0.893
617.4,0.894
616.42,0.894
615.4399999999999,0.897
614.46,0.901
613.48,0.897
612.5,0.896
611.52,0.897
610.54,0.899
609.56,0.899
608.58,0.897
607.6,0.895
606.62,0.896
605.64,0.897
604.66,0.896
603.68,0.896
602.7,0.894
601.72,0.893
600.74,0.894
599.76,0.894
598.78,0.894
597.8,0.895
596.8199999999999,0.896
595.84,0.896
594.86,0.896
593.88,0.896
592.9,0.896
591.92,0.897
590.9399999999999,0.897
589.96,0.897
588.98,0.897
588.0,0.897
587.02,0.899
586.04,0.897
585.06,0.899
584.08,0.907
583.1,0.915
582.12,0.923
581.14,0.929
580.16,0.936
579.18,0.943
578.2,0.950
577.22,0.958
576.24,0.969
575.26,0.975
574.28,0.980
573.3,0.985
572.3199999999999,0.992
571.34,1.000
570.36,0.994
569.38,0.981
568.4,0.967
567.42,0.956
566.4399999999999,0.943
565.46,0.929
564.48,0.917
563.5,0.908
562.52,0.897
561.54,0.886
560.56,0.877
559.58,0.867
558.6,0.858
557.62,0.852
556.64,0.848
555.66,0.847
554.68,0.846
553.7,0.845
552.72,0.848
551.74,0.848
550.76,0.848
549.78,0.850
548.8,0.853
547.8199999999999,0.854
546.84,0.854
545.86,0.855
544.88,0.858
543.9,0.858
542.92,0.859
541.9399999999999,0.859
540.96,0.861
539.98,0.861
539.0,0.861
538.02,0.860
537.04,0.860
536.06,0.858
535.08,0.857
534.1,0.857
533.12,0.855
532.14,0.854
531.16,0.852
530.18,0.848
529.2,0.843
528.22,0.840
527.24,0.836
526.26,0.831
525.28,0.828
524.3,0.824
523.3199999999999,0.819
522.34,0.815
521.36,0.813
520.38,0.811
519.4,0.805
518.42,0.800
517.4399999999999,0.796
516.46,0.792
515.48,0.790
514.5,0.787
513.52,0.785
512.54,0.784
511.56,0.783
510.58,0.782
509.59999999999997,0.781
508.62,0.782
507.64,0.786
506.65999999999997,0.788
505.68,0.793
504.7,0.795
503.71999999999997,0.796
502.74,0.797
501.76,0.799
500.78,0.801
499.8,0.803
498.82,0.805
497.84,0.806
496.86,0.805
495.88,0.805
494.9,0.806
493.92,0.807
492.94,0.807
491.96,0.806
490.98,0.806
490.0,0.804
489.02,0.803
488.03999999999996,0.802
487.06,0.799
486.08,0.797
485.09999999999997,0.796
484.12,0.794
483.14,0.786
482.15999999999997,0.781
481.18,0.775
480.2,0.767
479.21999999999997,0.761
478.24,0.756
477.26,0.753
476.28,0.750
475.3,0.748
474.32,0.745
473.34,0.743
472.36,0.739
471.38,0.736
470.4,0.734
469.42,0.731
468.44,0.727
467.46,0.724
466.48,0.722
465.5,0.719
464.52,0.719
463.53999999999996,0.717
462.56,0.716
461.58,0.715
460.59999999999997,0.715
459.62,0.715
458.64,0.716
457.65999999999997,0.716
456.68,0.715
455.7,0.712
454.71999999999997,0.711
453.74,0.709
452.76,0.708
451.78,0.707
450.8,0.704
449.82,0.702
448.84,0.698
447.86,0.696
446.88,0.693
445.9,0.688
444.92,0.683
443.94,0.676
442.96,0.670
441.98,0.664
441.0,0.657
440.02,0.649
439.03999999999996,0.640
438.06,0.631
437.08,0.620
436.09999999999997,0.611
435.12,0.600
434.14,0.588
433.15999999999997,0.576
432.18,0.566
431.2,0.553
430.21999999999997,0.540
429.24,0.528
428.26,0.517
427.28,0.506
426.3,0.495
425.32,0.485
424.34,0.478
423.36,0.471
422.38,0.467
421.4,0.460
420.42,0.454
419.44,0.449
418.46,0.444
417.48,0.436
416.5,0.428
415.52,0.421
414.54,0.414
413.56,0.408
412.58,0.399
411.59999999999997,0.395
410.62,0.392
409.64,0.389
408.65999999999997,0.385
407.68,0.384
406.7,0.381
405.71999999999997,0.379
404.74,0.378
403.76,0.378
402.78,0.376
401.8,0.377
400.82,0.377
399.84,0.376
398.86,0.376
397.88,0.376
396.9,0.377
395.92,0.377
394.94,0.378
393.96,0.379
392.98,0.381
392.0,0.382
391.02,0.381
390.04,0.379
389.06,0.376
388.08,0.375
387.09999999999997,0.374
386.12,0.375
385.14,0.378
384.15999999999997,0.378
383.18,0.380
382.2,0.383
381.21999999999997,0.386
380.24,0.390
