wavelength,amplitude
962.36,0.246
961.38,0.246
960.4,0.237
959.42,0.231
958.4399999999999,0.256
957.46,0.244
956.48,0.248
955.5,0.249
954.52,0.253
953.54,0.238
952.56,0.238
951.5799999999999,0.240
950.6,0.248
949.62,0.260
948.64,0.244
947.66,0.244
946.68,0.250
945.6999999999999,0.248
944.72,0.244
943.74,0.237
942.76,0.237
941.78,0.240
940.8,0.258
939.8199999999999,0.270
938.84,0.252
937.86,0.257
936.88,0.262
935.9,0.254
934.92,0.267
933.9399999999999,0.272
932.96,0.275
931.98,0.262
931.0,0.246
930.02,0.262
929.04,0.267
928.06,0.274
927.0799999999999,0.277
926.1,0.268
925.12,0.266
924.14,0.262
923.16,0.264
922.18,0.260
921.1999999999999,0.263
920.22,0.258
919.24,0.265
918.26,0.271
917.28,0.275
916.3,0.265
915.3199999999999,0.268
914.34,0.265
913.36,0.264
912.38,0.281
911.4,0.268
910.42,0.275
909.4399999999999,0.259
908.46,0.257
907.48,0.254
906.5,0.258
905.52,0.255
904.54,0.263
903.56,0.259
902.5799999999999,0.263
901.6,0.252
900.62,0.262
899.64,0.269
898.66,0.260
897.68,0.264
896.6999999999999,0.265
895.72,0.263
894.74,0.258
893.76,0.255
892.78,0.251
891.8,0.251
890.8199999999999,0.257
889.84,0.259
888.86,0.249
887.88,0.263
886.9,0.252
885.92,0.244
884.9399999999999,0.247
883.96,0.258
882.98,0.249
882.0,0.246
881.02,0.241
880.04,0.242
879.06,0.244
878.0799999999999,0.234
877.1,0.246
876.12,0.247
875.14,0.240
874.16,0.244
873.18,0.247
872.1999999999999,0.241
871.22,0.244
870.24,0.250
869.26,0.240
868.28,0.240
867.3,0.236
866.3199999999999,0.224
865.34,0.220
864.36,0.209
863.38,0.214
862.4,0.214
861.42,0.226
860.4399999999999,0.240
859.46,0.235
858.48,0.232
857.5,0.233
856.52,0.247
855.54,0.253
854.56,0.260
853.58,0.262
852.6,0.250
851.62,0.244
850.64,0.255
849.66,0.265
848.68,0.264
847.6999999999999,0.271
846.72,0.290
845.74,0.287
844.76,0.277
843.78,0.274
842.8,0.277
841.8199999999999,0.265
840.84,0.270
839.86,0.259
838.88,0.267
837.9,0.285
836.92,0.285
835.9399999999999,0.290
834.96,0.291
833.98,0.292
833.0,0.298
832.02,0.291
831.04,0.279
830.06,0.277
829.08,0.276
828.1,0.270
827.12,0.265
826.14,0.282
825.16,0.283
824.18,0.284
823.1999999999999,0.268
822.22,0.267
821.24,0.262
820.26,0.265
819.28,0.263
818.3,0.264
817.3199999999999,0.281
816.34,0.272
815.36,0.274
814.38,0.265
813.4,0.265
812.42,0.251
811.4399999999999,0.256
810.46,0.257
809.48,0.261
808.5,0.282
807.52,0.289
806.54,0.285
805.56,0.285
804.58,0.283
803.6,0.291
802.62,0.283
801.64,0.278
800.66,0.270
799.68,0.286
798.6999999999999,0.302
797.72,0.299
796.74,0.294
795.76,0.304
794.78,0.306
793.8,0.316
792.8199999999999,0.308
791.84,0.309
790.86,0.323
789.88,0.309
788.9,0.301
787.92,0.303
786.9399999999999,0.296
785.96,0.293
784.98,0.298
784.0,0.309
783.02,0.313
782.04,0.302
781.06,0.298
780.08,0.301
779.1,0.314
778.12,0.326
777.14,0.329
776.16,0.333
775.18,0.343
774.1999999999999,0.343
773.22,0.350
772.24,0.359
771.26,0.357
770.28,0.373
769.3,0.371
768.3199999999999,0.366
767.34,0.356
766.36,0.360
765.38,0.345
764.4,0.338
763.42,0.343
762.4399999999999,0.352
761.46,0.358
760.48,0.357
759.5,0.354
758.52,0.353
757.54,0.354
756.56,0.353
755.58,0.351
754.6,0.357
753.62,0.354
752.64,0.342
751.66,0.347
750.68,0.356
749.6999999999999,0.359
748.72,0.355
747.74,0.356
746.76,0.356
745.78,0.355
744.8,0.357
743.8199999999999,0.356
742.84,0.355
741.86,0.362
740.88,0.368
739.9,0.371
738.92,0.373
737.9399999999999,0.376
736.96,0.376
735.98,0.373
735.0,0.377
734.02,0.381
733.04,0.390
732.06,0.392
731.08,0.388
730.1,0.388
729.12,0.392
728.14,0.395
727.16,0.398
726.18,0.398
725.1999999999999,0.403
724.22,0.402
723.24,0.396
722.26,0.397
721.28,0.385
720.3,0.382
719.3199999999999,0.393
718.34,0.389
717.36,0.387
716.38,0.386
715.4,0.387
714.42,0.391
713.4399999999999,0.393
712.46,0.388
711.48,0.386
710.5,0.398
709.52,0.394
708.54,0.393
707.56,0.386
706.58,0.385
705.6,0.395
704.62,0.392
703.64,0.398
702.66,0.404
701.68,0.406
700.6999999999999,0.409
699.72,0.410
698.74,0.406
697.76,0.409
696.78,0.404
695.8,0.397
694.8199999999999,0.404
693.84,0.404
692.86,0.413
691.88,0.416
690.9,0.403
689.92,0.404
688.9399999999999,0.405
687.96,0.410
686.98,0.408
686.0,0.412
685.02,0.417
684.04,0.416
683.06,0.416
682.08,0.408
681.1,0.407
680.12,0.410
679.14,0.407
678.16,0.412
677.18,0.408
676.1999999999999,0.417
675.22,0.417
674.24,0.420
673.26,0.421
672.28,0.419
671.3,0.417
670.3199999999999,0.417
669.34,0.414
668.36,0.426
667.38,0.424
666.4,0.428
665.42,0.429
664.4399999999999,0.440
663.46,0.436
662.48,0.435
661.5,0.435
660.52,0.441
659.54,0.450
658.56,0.457
657.58,0.453
656.6,0.460
655.62,0.467
654.64,0.463
653.66,0.462
652.68,0.466
651.6999999999999,0.466
650.72,0.460
649.74,0.463
648.76,0.468
647.78,0.481
646.8,0.492
645.8199999999999,0.492
644.84,0.486
643.86,0.498
642.88,0.503
641.9,0.507
640.92,0.508
639.9399999999999,0.501
638.96,0.508
637.98,0.514
637.0,0.522
636.02,0.541
635.04,0.538
634.06,0.539
633.08,0.551
632.1,0.571
631.12,0.581
630.14,0.586
629.16,0.571
628.18,0.561
627.2,0.561
626.22,0.548
625.24,0.548
624.26,0.540
623.28,0.530
622.3,0.512
621.3199999999999,0.500
620.34,0.485
619.36,0.478
618.38,0.483
617.4,0.490
616.42,0.478
615.4399999999999,0.487
614.46,0.486
613.48,0.477
612.5,0.479
611.52,0.497
610.54,0.492
609.56,0.492
608.58,0.501
607.6,0.510
606.62,0.515
605.64,0.524
604.66,0.528
603.68,0.528
602.7,0.527
601.72,0.528
600.74,0.534
599.76,0.527
598.78,0.524
597.8,0.542
596.8199999999999,0.542
595.84,0.541
594.86,0.540
593.88,0.550
592.9,0.556
591.92,0.565
590.9399999999999,0.572
589.96,0.576
588.98,0.574
588.0,0.576
587.02,0.582
586.04,0.587
585.06,0.588
584.08,0.597
583.1,0.606
582.12,0.611
581.14,0.618
580.16,0.621
579.18,0.626
578.2,0.646
577.22,0.660
576.24,0.669
575.26,0.685
574.28,0.692
573.3,0.708
572.3199999999999,0.723
571.34,0.732
570.36,0.734
569.38,0.728
568.4,0.730
567.42,0.735
566.4399999999999,0.733
565.46,0.721
564.48,0.713
563.5,0.711
562.52,0.702
561.54,0.680
560.56,0.690
559.58,0.685
558.6,0.683
557.62,0.682
556.64,0.671
555.66,0.680
554.68,0.692
553.7,0.703
552.72,0.718
551.74,0.738
550.76,0.746
549.78,0.766
548.8,0.787
547.8199999999999,0.799
546.84,0.807
545.86,0.808
544.88,0.814
543.9,0.833
542.92,0.850
541.9399999999999,0.867
540.96,0.870
539.98,0.875
539.0,0.882
538.02,0.894
537.04,0.901
536.06,0.909
535.08,0.917
534.1,0.926
533.12,0.940
532.14,0.957
531.16,0.970
530.18,0.980
529.2,0.986
528.22,0.974
527.24,0.987
526.26,0.995
525.28,1.000
524.3,0.995
523.3199999999999,0.996
522.34,0.989
521.36,0.982
520.38,0.980
519.4,0.985
518.42,0.982
517.4399999999999,0.978
516.46,0.975
515.48,0.976
514.5,0.963
513.52,0.961
512.54,0.951
511.56,0.937
510.58,0.919
509.59999999999997,0.896
508.62,0.869
507.64,0.841
506.65999999999997,0.813
505.68,0.784
504.7,0.759
503.71999999999997,0.737
502.74,0.707
501.76,0.672
500.78,0.653
499.8,0.632
498.82,0.610
497.84,0.589
496.86,0.568
495.88,0.552
494.9,0.545
493.92,0.533
492.94,0.528
491.96,0.530
490.98,0.521
490.0,0.515
489.02,0.504
488.03999999999996,0.502
487.06,0.502
486.08,0.506
485.09999999999997,0.503
484.12,0.504
483.14,0.500
482.15999999999997,0.499
481.18,0.499
480.2,0.498
479.21999999999997,0.497
478.24,0.497
477.26,0.498
476.28,0.492
475.3,0.488
474.32,0.489
473.34,0.485
472.36,0.488
471.38,0.480
470.4,0.480
469.42,0.480
468.44,0.480
467.46,0.477
466.48,0.476
465.5,0.472
464.52,0.473
463.53999999999996,0.471
462.56,0.469
461.58,0.462
460.59999999999997,0.461
459.62,0.458
458.64,0.456
457.65999999999997,0.455
456.68,0.455
455.7,0.454
454.71999999999997,0.454
453.74,0.456
452.76,0.458
451.78,0.457
450.8,0.459
449.82,0.461
448.84,0.468
447.86,0.465
446.88,0.462
445.9,0.459
444.92,0.457
443.94,0.453
442.96,0.452
441.98,0.451
441.0,0.450
440.02,0.451
439.03999999999996,0.448
438.06,0.447
437.08,0.440
436.09999999999997,0.437
435.12,0.438
434.14,0.439
433.15999999999997,0.436
432.18,0.432
431.2,0.429
430.21999999999997,0.419
429.24,0.413
428.26,0.399
427.28,0.384
426.3,0.367
425.32,0.345
424.34,0.326
423.36,0.303
422.38,0.280
421.4,0.263
420.42,0.254
419.44,0.249
418.46,0.238
417.48,0.227
416.5,0.215
415.52,0.202
414.54,0.187
413.56,0.171
412.58,0.160
411.59999999999997,0.150
410.62,0.143
409.64,0.132
408.65999999999997,0.126
407.68,0.117
406.7,0.108
405.71999999999997,0.102
404.74,0.098
403.76,0.095
402.78,0.089
401.8,0.086
400.82,0.087
399.84,0.086
398.86,0.082
397.88,0.083
396.9,0.083
395.92,0.082
394.94,0.081
393.96,0.078
392.98,0.076
392.0,0.073
391.02,0.072
390.04,0.071
389.06,0.070
388.08,0.076
387.09999999999997,0.076
386.12,0.071
385.14,0.075
384.15999999999997,0.076
383.18,0.070
382.2,0.071
381.21999999999997,0.070
380.24,0.071
