wavelength,amplitude
957.46,0.869
956.48,0.831
955.5,0.813
954.52,0.798
953.54,0.801
952.56,0.772
951.5799999999999,0.779
950.6,0.779
949.62,0.764
948.64,0.773
947.66,0.779
946.68,0.794
945.6999999999999,0.794
944.72,0.786
943.74,0.807
942.76,0.748
941.78,0.740
940.8,0.733
939.8199999999999,0.720
938.84,0.800
937.86,0.782
936.88,0.753
935.9,0.746
934.92,0.755
933.9399999999999,0.733
932.96,0.731
931.98,0.733
931.0,0.735
930.02,0.729
929.04,0.712
928.06,0.715
927.0799999999999,0.707
926.1,0.697
925.12,0.667
924.14,0.682
923.16,0.697
922.18,0.710
921.1999999999999,0.712
920.22,0.660
919.24,0.667
918.26,0.660
917.28,0.654
916.3,0.674
915.3199999999999,0.675
914.34,0.650
913.36,0.645
912.38,0.645
911.4,0.648
910.42,0.646
909.4399999999999,0.622
908.46,0.619
907.48,0.609
906.5,0.634
905.52,0.641
904.54,0.620
903.56,0.624
902.5799999999999,0.631
901.6,0.618
900.62,0.605
899.64,0.610
898.66,0.628
897.68,0.648
896.6999999999999,0.641
895.72,0.618
894.74,0.597
893.76,0.592
892.78,0.625
891.8,0.623
890.8199999999999,0.611
889.84,0.620
888.86,0.608
887.88,0.588
886.9,0.611
885.92,0.620
884.9399999999999,0.616
883.96,0.616
882.98,0.618
882.0,0.636
881.02,0.627
880.04,0.613
879.06,0.595
878.0799999999999,0.595
877.1,0.599
876.12,0.604
875.14,0.619
874.16,0.607
873.18,0.626
872.1999999999999,0.609
871.22,0.606
870.24,0.613
869.26,0.602
868.28,0.566
867.3,0.569
866.3199999999999,0.574
865.34,0.557
864.36,0.580
863.38,0.580
862.4,0.577
861.42,0.573
860.4399999999999,0.554
859.46,0.565
858.48,0.548
857.5,0.564
856.52,0.587
855.54,0.609
854.56,0.538
853.58,0.547
852.6,0.553
851.62,0.560
850.64,0.587
849.66,0.589
848.68,0.606
847.6999999999999,0.600
846.72,0.587
845.74,0.586
844.76,0.601
843.78,0.599
842.8,0.593
841.8199999999999,0.588
840.84,0.617
839.86,0.587
838.88,0.582
837.9,0.583
836.92,0.574
835.9399999999999,0.589
834.96,0.598
833.98,0.600
833.0,0.604
832.02,0.609
831.04,0.621
830.06,0.582
829.08,0.585
828.1,0.613
827.12,0.587
826.14,0.607
825.16,0.597
824.18,0.588
823.1999999999999,0.603
822.22,0.585
821.24,0.598
820.26,0.611
819.28,0.613
818.3,0.604
817.3199999999999,0.586
816.34,0.590
815.36,0.586
814.38,0.577
813.4,0.585
812.42,0.591
811.4399999999999,0.604
810.46,0.606
809.48,0.596
808.5,0.591
807.52,0.607
806.54,0.578
805.56,0.585
804.58,0.589
803.6,0.565
802.62,0.572
801.64,0.560
800.66,0.544
799.68,0.530
798.6999999999999,0.557
797.72,0.549
796.74,0.548
795.76,0.560
794.78,0.541
793.8,0.561
792.8199999999999,0.547
791.84,0.545
790.86,0.538
789.88,0.533
788.9,0.558
787.92,0.566
786.9399999999999,0.550
785.96,0.541
784.98,0.526
784.0,0.527
783.02,0.520
782.04,0.513
781.06,0.516
780.08,0.546
779.1,0.515
778.12,0.500
777.14,0.492
776.16,0.494
775.18,0.504
774.1999999999999,0.487
773.22,0.468
772.24,0.454
771.26,0.463
770.28,0.483
769.3,0.471
768.3199999999999,0.470
767.34,0.476
766.36,0.463
765.38,0.464
764.4,0.461
763.42,0.438
762.4399999999999,0.415
761.46,0.418
760.48,0.393
759.5,0.385
758.52,0.371
757.54,0.363
756.56,0.363
755.58,0.356
754.6,0.342
753.62,0.319
752.64,0.299
751.66,0.281
750.68,0.267
749.6999999999999,0.252
748.72,0.250
747.74,0.235
746.76,0.251
745.78,0.244
744.8,0.243
743.8199999999999,0.228
742.84,0.230
741.86,0.219
740.88,0.228
739.9,0.222
738.92,0.226
737.9399999999999,0.220
736.96,0.223
735.98,0.223
735.0,0.218
734.02,0.214
733.04,0.226
732.06,0.227
731.08,0.229
730.1,0.230
729.12,0.223
728.14,0.217
727.16,0.232
726.18,0.235
725.1999999999999,0.218
724.22,0.222
723.24,0.222
722.26,0.224
721.28,0.232
720.3,0.249
719.3199999999999,0.239
718.34,0.254
717.36,0.260
716.38,0.259
715.4,0.253
714.42,0.269
713.4399999999999,0.270
712.46,0.279
711.48,0.294
710.5,0.309
709.52,0.315
708.54,0.327
707.56,0.344
706.58,0.353
705.6,0.378
704.62,0.403
703.64,0.422
702.66,0.427
701.68,0.433
700.6999999999999,0.469
699.72,0.475
698.74,0.494
697.76,0.508
696.78,0.501
695.8,0.517
694.8199999999999,0.532
693.84,0.539
692.86,0.550
691.88,0.556
690.9,0.560
689.92,0.558
688.9399999999999,0.554
687.96,0.543
686.98,0.545
686.0,0.557
685.02,0.552
684.04,0.553
683.06,0.560
682.08,0.569
681.1,0.572
680.12,0.588
679.14,0.585
678.16,0.582
677.18,0.578
676.1999999999999,0.581
675.22,0.579
674.24,0.574
673.26,0.569
672.28,0.579
671.3,0.582
670.3199999999999,0.585
669.34,0.579
668.36,0.558
667.38,0.571
666.4,0.585
665.42,0.610
664.4399999999999,0.642
663.46,0.668
662.48,0.698
661.5,0.739
660.52,0.759
659.54,0.768
658.56,0.815
657.58,0.814
656.6,0.815
655.62,0.809
654.64,0.785
653.66,0.747
652.68,0.708
651.6999999999999,0.674
650.72,0.640
649.74,0.601
648.76,0.577
647.78,0.556
646.8,0.539
645.8199999999999,0.541
644.84,0.529
643.86,0.530
642.88,0.527
641.9,0.530
640.92,0.532
639.9399999999999,0.520
638.96,0.533
637.98,0.539
637.0,0.536
636.02,0.544
635.04,0.542
634.06,0.550
633.08,0.561
632.1,0.583
631.12,0.578
630.14,0.595
629.16,0.585
628.18,0.583
627.2,0.585
626.22,0.578
625.24,0.576
624.26,0.557
623.28,0.547
622.3,0.545
621.3199999999999,0.544
620.34,0.536
619.36,0.527
618.38,0.514
617.4,0.508
616.42,0.491
615.4399999999999,0.477
614.46,0.472
613.48,0.459
612.5,0.430
611.52,0.426
610.54,0.412
609.56,0.400
608.58,0.397
607.6,0.400
606.62,0.393
605.64,0.400
604.66,0.406
603.68,0.404
602.7,0.415
601.72,0.400
600.74,0.401
599.76,0.410
598.78,0.408
597.8,0.384
596.8199999999999,0.397
595.84,0.398
594.86,0.400
593.88,0.404
592.9,0.402
591.92,0.416
590.9399999999999,0.434
589.96,0.447
588.98,0.468
588.0,0.501
587.02,0.545
586.04,0.583
585.06,0.611
584.08,0.653
583.1,0.722
582.12,0.804
581.14,0.867
580.16,0.916
579.18,0.961
578.2,0.991
577.22,1.000
576.24,0.982
575.26,0.959
574.28,0.931
573.3,0.867
572.3199999999999,0.808
571.34,0.747
570.36,0.673
569.38,0.614
568.4,0.556
567.42,0.510
566.4399999999999,0.469
565.46,0.461
564.48,0.450
563.5,0.428
562.52,0.420
561.54,0.426
560.56,0.407
559.58,0.397
558.6,0.394
557.62,0.392
556.64,0.372
555.66,0.389
554.68,0.386
553.7,0.387
552.72,0.378
551.74,0.379
550.76,0.369
549.78,0.368
548.8,0.369
547.8199999999999,0.370
546.84,0.365
545.86,0.380
544.88,0.380
543.9,0.368
542.92,0.356
541.9399999999999,0.338
540.96,0.346
539.98,0.344
539.0,0.347
538.02,0.350
537.04,0.335
536.06,0.341
535.08,0.349
534.1,0.359
533.12,0.357
532.14,0.357
531.16,0.360
530.18,0.376
529.2,0.389
528.22,0.393
527.24,0.397
526.26,0.407
525.28,0.410
524.3,0.414
523.3199999999999,0.436
522.34,0.441
521.36,0.452
520.38,0.462
519.4,0.463
518.42,0.483
517.4399999999999,0.485
516.46,0.491
515.48,0.494
514.5,0.486
513.52,0.464
512.54,0.450
511.56,0.441
510.58,0.431
509.59999999999997,0.416
508.62,0.391
507.64,0.371
506.65999999999997,0.367
505.68,0.359
504.7,0.336
503.71999999999997,0.334
502.74,0.332
501.76,0.323
500.78,0.318
499.8,0.316
498.82,0.307
497.84,0.307
496.86,0.312
495.88,0.312
494.9,0.308
493.92,0.307
492.94,0.305
491.96,0.308
490.98,0.304
490.0,0.298
489.02,0.291
488.03999999999996,0.295
487.06,0.301
486.08,0.298
485.09999999999997,0.297
484.12,0.295
483.14,0.299
482.15999999999997,0.305
481.18,0.304
480.2,0.304
479.21999999999997,0.303
478.24,0.298
477.26,0.297
476.28,0.306
475.3,0.297
474.32,0.291
473.34,0.296
472.36,0.297
471.38,0.300
470.4,0.300
469.42,0.298
468.44,0.299
467.46,0.300
466.48,0.303
465.5,0.299
464.52,0.299
463.53999999999996,0.297
462.56,0.302
461.58,0.305
460.59999999999997,0.308
459.62,0.306
458.64,0.301
457.65999999999997,0.299
456.68,0.297
455.7,0.292
454.71999999999997,0.284
453.74,0.272
452.76,0.265
451.78,0.260
450.8,0.252
449.82,0.239
448.84,0.244
447.86,0.242
446.88,0.237
445.9,0.234
444.92,0.228
443.94,0.227
442.96,0.223
441.98,0.215
441.0,0.208
440.02,0.206
439.03999999999996,0.202
438.06,0.199
437.08,0.202
436.09999999999997,0.190
435.12,0.198
434.14,0.181
433.15999999999997,0.179
432.18,0.173
431.2,0.168
430.21999999999997,0.177
429.24,0.180
428.26,0.176
427.28,0.175
426.3,0.174
425.32,0.173
424.34,0.166
423.36,0.161
422.38,0.161
421.4,0.165
420.42,0.163
419.44,0.164
418.46,0.162
417.48,0.160
416.5,0.156
415.52,0.155
414.54,0.160
413.56,0.161
412.58,0.160
411.59999999999997,0.162
410.62,0.161
409.64,0.156
408.65999999999997,0.157
407.68,0.158
406.7,0.152
405.71999999999997,0.155
404.74,0.159
403.76,0.159
402.78,0.158
401.8,0.155
400.82,0.155
399.84,0.155
398.86,0.159
397.88,0.156
396.9,0.150
395.92,0.154
394.94,0.157
393.96,0.159
392.98,0.158
392.0,0.162
391.02,0.154
390.04,0.155
389.06,0.154
388.08,0.160
387.09999999999997,0.151
386.12,0.150
385.14,0.154
384.15999999999997,0.157
383.18,0.158
382.2,0.156
381.21999999999997,0.161
380.24,0.162
