wavelength,amplitude
956.97,0.192
955.99,0.187
955.01,0.176
954.03,0.183
953.05,0.177
952.0699999999999,0.171
951.09,0.176
950.11,0.188
949.13,0.194
948.15,0.199
947.17,0.184
946.1899999999999,0.181
945.21,0.174
944.23,0.174
943.25,0.183
942.27,0.190
941.29,0.203
940.31,0.209
939.3299999999999,0.200
938.35,0.203
937.37,0.186
936.39,0.176
935.41,0.176
934.43,0.183
933.4499999999999,0.163
932.47,0.159
931.49,0.160
930.51,0.173
929.53,0.172
928.55,0.170
927.5699999999999,0.180
926.59,0.188
925.61,0.181
924.63,0.183
923.65,0.191
922.67,0.179
921.6899999999999,0.172
920.71,0.175
919.73,0.190
918.75,0.170
917.77,0.169
916.79,0.171
915.81,0.175
914.8299999999999,0.191
913.85,0.180
912.87,0.175
911.89,0.166
910.91,0.164
909.93,0.156
908.9499999999999,0.169
907.97,0.189
906.99,0.184
906.01,0.161
905.03,0.174
904.05,0.183
903.0699999999999,0.176
902.09,0.170
901.11,0.174
900.13,0.177
899.15,0.167
898.17,0.168
897.1899999999999,0.193
896.21,0.202
895.23,0.200
894.25,0.198
893.27,0.197
892.29,0.174
891.31,0.178
890.3299999999999,0.156
889.35,0.146
888.37,0.163
887.39,0.177
886.41,0.166
885.43,0.167
884.4499999999999,0.171
883.47,0.176
882.49,0.180
881.51,0.183
880.53,0.168
879.55,0.166
878.5699999999999,0.170
877.59,0.186
876.61,0.162
875.63,0.156
874.65,0.156
873.67,0.158
872.6899999999999,0.176
871.71,0.174
870.73,0.173
869.75,0.166
868.77,0.165
867.79,0.159
866.81,0.162
865.83,0.176
864.85,0.174
863.87,0.176
862.89,0.176
861.91,0.182
860.93,0.178
859.9499999999999,0.170
858.97,0.163
857.99,0.164
857.01,0.176
856.03,0.198
855.05,0.243
854.0699999999999,0.229
853.09,0.207
852.11,0.197
851.13,0.189
850.15,0.190
849.17,0.177
848.1899999999999,0.177
847.21,0.174
846.23,0.170
845.25,0.174
844.27,0.177
843.29,0.185
842.31,0.189
841.33,0.185
840.35,0.180
839.37,0.183
838.39,0.182
837.41,0.183
836.43,0.182
835.4499999999999,0.200
834.47,0.202
833.49,0.204
832.51,0.208
831.53,0.208
830.55,0.213
829.5699999999999,0.199
828.59,0.205
827.61,0.219
826.63,0.219
825.65,0.217
824.67,0.222
823.6899999999999,0.220
822.71,0.217
821.73,0.228
820.75,0.222
819.77,0.235
818.79,0.239
817.81,0.235
816.83,0.238
815.85,0.229
814.87,0.232
813.89,0.238
812.91,0.239
811.93,0.247
810.9499999999999,0.255
809.97,0.253
808.99,0.250
808.01,0.244
807.03,0.262
806.05,0.251
805.0699999999999,0.247
804.09,0.253
803.11,0.255
802.13,0.260
801.15,0.287
800.17,0.287
799.1899999999999,0.275
798.21,0.257
797.23,0.256
796.25,0.263
795.27,0.280
794.29,0.302
793.31,0.284
792.33,0.307
791.35,0.311
790.37,0.293
789.39,0.293
788.41,0.289
787.43,0.291
786.4499999999999,0.284
785.47,0.268
784.49,0.274
783.51,0.262
782.53,0.263
781.55,0.272
780.5699999999999,0.288
779.59,0.277
778.61,0.287
777.63,0.295
776.65,0.300
775.67,0.296
774.6899999999999,0.315
773.71,0.314
772.73,0.306
771.75,0.311
770.77,0.309
769.79,0.316
768.81,0.323
767.83,0.346
766.85,0.371
765.87,0.356
764.89,0.361
763.91,0.357
762.93,0.348
761.9499999999999,0.346
760.97,0.336
759.99,0.343
759.01,0.357
758.03,0.371
757.05,0.378
756.0699999999999,0.383
755.09,0.382
754.11,0.385
753.13,0.385
752.15,0.389
751.17,0.394
750.1899999999999,0.402
749.21,0.408
748.23,0.411
747.25,0.414
746.27,0.434
745.29,0.452
744.31,0.455
743.33,0.442
742.35,0.458
741.37,0.455
740.39,0.457
739.41,0.464
738.43,0.473
737.4499999999999,0.492
736.47,0.502
735.49,0.500
734.51,0.504
733.53,0.511
732.55,0.533
731.5699999999999,0.553
730.59,0.564
729.61,0.578
728.63,0.584
727.65,0.596
726.67,0.609
725.6899999999999,0.626
724.71,0.640
723.73,0.643
722.75,0.654
721.77,0.675
720.79,0.683
719.81,0.694
718.83,0.718
717.85,0.716
716.87,0.721
715.89,0.727
714.91,0.734
713.93,0.747
712.9499999999999,0.758
711.97,0.769
710.99,0.778
710.01,0.771
709.03,0.766
708.05,0.781
707.0699999999999,0.795
706.09,0.821
705.11,0.832
704.13,0.829
703.15,0.824
702.17,0.828
701.1899999999999,0.826
700.21,0.851
699.23,0.846
698.25,0.854
697.27,0.865
696.29,0.874
695.31,0.907
694.33,0.914
693.35,0.907
692.37,0.897
691.39,0.895
690.41,0.912
689.43,0.919
688.4499999999999,0.931
687.47,0.944
686.49,0.960
685.51,0.931
684.53,0.933
683.55,0.929
682.5699999999999,0.919
681.59,0.938
680.61,0.946
679.63,0.948
678.65,0.946
677.67,0.951
676.6899999999999,0.949
675.71,0.946
674.73,0.947
673.75,0.944
672.77,0.940
671.79,0.948
670.81,0.942
669.83,0.935
668.85,0.942
667.87,0.941
666.89,0.951
665.91,0.948
664.93,0.957
663.9499999999999,0.962
662.97,0.967
661.99,0.964
661.01,0.972
660.03,0.973
659.05,0.968
658.0699999999999,0.965
657.09,0.973
656.11,0.978
655.13,0.983
654.15,0.994
653.17,0.992
652.1899999999999,0.996
651.21,1.000
650.23,0.997
649.25,0.976
648.27,0.989
647.29,0.985
646.31,0.984
645.33,0.983
644.35,0.975
643.37,0.962
642.39,0.956
641.41,0.960
640.43,0.972
639.4499999999999,0.991
638.47,0.984
637.49,0.976
636.51,0.967
635.53,0.962
634.55,0.968
633.5699999999999,0.969
632.59,0.952
631.61,0.942
630.63,0.938
629.65,0.920
628.67,0.899
627.6899999999999,0.883
626.71,0.866
625.73,0.860
624.75,0.828
623.77,0.803
622.79,0.780
621.81,0.734
620.83,0.706
619.85,0.674
618.87,0.639
617.89,0.596
616.91,0.555
615.93,0.515
614.95,0.501
613.97,0.486
612.99,0.467
612.01,0.443
611.03,0.420
610.05,0.400
609.0699999999999,0.384
608.09,0.371
607.11,0.366
606.13,0.362
605.15,0.361
604.17,0.362
603.1899999999999,0.353
602.21,0.330
601.23,0.326
600.25,0.319
599.27,0.310
598.29,0.298
597.31,0.303
596.33,0.296
595.35,0.292
594.37,0.292
593.39,0.277
592.41,0.275
591.43,0.276
590.45,0.275
589.47,0.275
588.49,0.281
587.51,0.263
586.53,0.261
585.55,0.261
584.5699999999999,0.262
583.59,0.262
582.61,0.271
581.63,0.269
580.65,0.269
579.67,0.272
578.6899999999999,0.272
577.71,0.275
576.73,0.275
575.75,0.272
574.77,0.271
573.79,0.271
572.81,0.276
571.83,0.273
570.85,0.277
569.87,0.283
568.89,0.271
567.91,0.266
566.93,0.267
565.95,0.264
564.97,0.256
563.99,0.267
563.01,0.260
562.03,0.249
561.05,0.238
560.0699999999999,0.233
559.09,0.229
558.11,0.223
557.13,0.221
556.15,0.218
555.17,0.220
554.1899999999999,0.220
553.21,0.214
552.23,0.207
551.25,0.199
550.27,0.192
549.29,0.183
548.31,0.180
547.33,0.187
546.35,0.188
545.37,0.187
544.39,0.185
543.41,0.179
542.43,0.182
541.45,0.192
540.47,0.186
539.49,0.179
538.51,0.168
537.53,0.160
536.55,0.159
535.5699999999999,0.153
534.59,0.156
533.61,0.158
532.63,0.159
531.65,0.158
530.67,0.157
529.6899999999999,0.157
528.71,0.155
527.73,0.144
526.75,0.153
525.77,0.147
524.79,0.144
523.81,0.142
522.83,0.151
521.85,0.151
520.87,0.152
519.89,0.149
518.91,0.151
517.93,0.149
516.95,0.152
515.97,0.143
514.99,0.142
514.01,0.142
513.03,0.135
512.05,0.138
511.07,0.134
510.09,0.136
509.11,0.128
508.13,0.128
507.15,0.124
506.17,0.120
505.19,0.125
504.21,0.116
503.23,0.115
502.25,0.109
501.27,0.110
500.28999999999996,0.113
499.31,0.113
498.33,0.108
497.34999999999997,0.105
496.37,0.105
495.39,0.107
494.40999999999997,0.101
493.43,0.102
492.45,0.102
491.46999999999997,0.104
490.49,0.111
489.51,0.112
488.53,0.115
487.55,0.116
486.57,0.115
485.59,0.114
484.61,0.110
483.63,0.111
482.65,0.110
481.67,0.112
480.69,0.110
479.71,0.110
478.73,0.113
477.75,0.114
476.77,0.111
475.78999999999996,0.118
474.81,0.110
473.83,0.109
472.84999999999997,0.108
471.87,0.109
470.89,0.108
469.90999999999997,0.103
468.93,0.100
467.95,0.096
466.96999999999997,0.104
465.99,0.100
465.01,0.098
464.03,0.099
463.05,0.101
462.07,0.105
461.09,0.106
460.11,0.102
459.13,0.095
458.15,0.092
457.17,0.094
456.19,0.092
455.21,0.093
454.23,0.098
453.25,0.093
452.27,0.090
451.28999999999996,0.086
450.31,0.081
449.33,0.082
448.34999999999997,0.078
447.37,0.079
446.39,0.083
445.40999999999997,0.084
444.43,0.084
443.45,0.087
442.46999999999997,0.090
441.49,0.087
440.51,0.084
439.53,0.084
438.55,0.087
437.57,0.085
436.59,0.085
435.61,0.084
434.63,0.081
433.65,0.085
432.67,0.083
431.69,0.082
430.71,0.082
429.73,0.085
428.75,0.083
427.77,0.081
426.79,0.081
425.81,0.081
424.83,0.077
423.84999999999997,0.076
422.87,0.077
421.89,0.079
420.90999999999997,0.078
419.93,0.073
418.95,0.075
417.96999999999997,0.075
416.99,0.074
416.01,0.078
415.03,0.068
414.05,0.069
413.07,0.069
412.09,0.075
411.11,0.073
410.13,0.075
409.15,0.075
408.17,0.072
407.19,0.066
406.21,0.064
405.23,0.067
404.25,0.062
403.27,0.064
402.29,0.065
401.31,0.065
400.33,0.068
399.34999999999997,0.069
398.37,0.066
397.39,0.065
396.40999999999997,0.064
395.43,0.065
394.45,0.067
393.46999999999997,0.067
392.49,0.066
391.51,0.066
390.53,0.068
389.55,0.068
388.57,0.063
387.59,0.062
386.61,0.066
385.63,0.060
384.65,0.060
383.67,0.060
382.69,0.066
381.71,0.070
380.73,0.071
